accuracy	dm_source_file	leksikalnost	rec	trial_number	NoM	RT
86.95652174	02-2018A.csv	rec	ALARM	86	1	961
93.08176101	09-2018B.csv	rec	ALARM	86	1	690
86.30136986	10-2018A.csv	rec	ALARM	86	1	577
94.73684211	1-2018A.csv	rec	ALARM	86	1	494
96.90721649	12-2018B.csv	rec	ALARM	86	1	718
93.42105263	14-2018B.csv	rec	ALARM	86	1	525
93.98496241	18-2018B.csv	rec	ALARM	86	1	548
90.41916168	19-2018B.csv	rec	ALARM	86	1	400
88.23529412	20-2018A.csv	rec	ALARM	86	1	617
94.87179487	21-2018A.csv	rec	ALARM	86	1	511
91.40271493	23-2018B.csv	rec	ALARM	86	1	581
86.30136986	26-2018A.csv	rec	ALARM	86	1	587
92	31-2018A.csv	rec	ALARM	86	1	471
90.76923077	33-2018A.csv	rec	ALARM	86	1	504
92.89099526	34-2018B.csv	rec	ALARM	86	1	709
82.43243243	35-2018A.csv	rec	ALARM	86	1	588
84.83412322	36-2018B.csv	rec	ALARM	86	1	713
96.05263158	37-2018A.csv	rec	ALARM	86	1	569
98.5915493	40-2018A.csv	rec	ALARM	86	1	470
88.77005348	4-2018B.csv	rec	ALARM	86	1	632
86	42-2018A.csv	rec	ALARM	86	1	621
88.88888889	43-2018A.csv	rec	ALARM	86	1	557
91.4893617	44-2018B.csv	rec	ALARM	86	1	613
93.93939394	45-2018A.csv	rec	ALARM	86	1	663
97.14285714	48-2018A.csv	rec	ALARM	86	1	520
72	50-2018A.csv	rec	ALARM	86	1	541
83.62573099	53-2018B.csv	rec	ALARM	86	1	813
90.96045198	54-2018B.csv	rec	ALARM	86	1	577
94.85714286	55-2018B.csv	rec	ALARM	86	1	537
95	56-2018A.csv	rec	ALARM	86	1	535
93.81443299	56-2018B.csv	rec	ALARM	86	1	732
88.4057971	59-2018A.csv	rec	ALARM	86	1	662
95.71428571	61-2018B.csv	rec	ALARM	86	1	683
96.22641509	6-2018B.csv	rec	ALARM	86	1	460
93.25842697	63-2018A.csv	rec	ALARM	86	1	649
95.23809524	65-2018B.csv	rec	ALARM	86	1	517
89.63414634	67-2018B.csv	rec	ALARM	86	1	915
93.15068493	68-2018B.csv	rec	ALARM	86	1	450
94.05940594	7-2018A.csv	rec	ALARM	86	1	645
98	73-2018A.csv	rec	ALARM	86	1	521
98.24561404	8-2018A.csv	rec	ALARM	86	1	712
87.27272727	02-2018A.csv	rec	AUTOR	72	1	516
92.34449761	09-2018B.csv	rec	AUTOR	72	1	564
75.86206897	10-2018A.csv	rec	AUTOR	72	1	529
94.89795918	1-2018A.csv	rec	AUTOR	72	1	615
96.17834395	12-2018B.csv	rec	AUTOR	72	1	713
93.05555556	14-2018B.csv	rec	AUTOR	72	1	616
93.81443299	18-2018B.csv	rec	AUTOR	72	1	490
90.38461538	19-2018B.csv	rec	AUTOR	72	1	559
95.23809524	20-2018A.csv	rec	AUTOR	72	1	526
91.30434783	21-2018A.csv	rec	AUTOR	72	1	448
90.05524862	23-2018B.csv	rec	AUTOR	72	1	398
88.0952381	26-2018A.csv	rec	AUTOR	72	1	879
91.66666667	31-2018A.csv	rec	AUTOR	72	1	471
91.22807018	33-2018A.csv	rec	AUTOR	72	1	1261
94.33962264	34-2018B.csv	rec	AUTOR	72	1	639
76	35-2018A.csv	rec	AUTOR	72	1	623
84.89583333	36-2018B.csv	rec	AUTOR	72	1	682
95.71428571	37-2018A.csv	rec	AUTOR	72	1	736
97.77777778	40-2018A.csv	rec	AUTOR	72	1	521
90	4-2018B.csv	rec	AUTOR	72	1	627
90.47619048	42-2018A.csv	rec	AUTOR	72	1	422
92.5	43-2018A.csv	rec	AUTOR	72	1	494
92.22797927	44-2018B.csv	rec	AUTOR	72	1	736
92.04545455	45-2018A.csv	rec	AUTOR	72	1	688
95.65217391	48-2018A.csv	rec	AUTOR	72	1	705
75.67567568	50-2018A.csv	rec	AUTOR	72	1	476
82.51748252	53-2018B.csv	rec	AUTOR	72	1	535
91.78082192	54-2018B.csv	rec	AUTOR	72	1	751
93.98496241	55-2018B.csv	rec	AUTOR	72	1	881
96.92307692	56-2018A.csv	rec	AUTOR	72	1	527
94.05940594	56-2018B.csv	rec	AUTOR	72	1	562
93.75	59-2018A.csv	rec	AUTOR	72	1	422
95.13513514	61-2018B.csv	rec	AUTOR	72	1	653
96.17834395	6-2018B.csv	rec	AUTOR	72	1	565
97.6744186	63-2018A.csv	rec	AUTOR	72	1	577
95	65-2018B.csv	rec	AUTOR	72	1	499
90.64748201	67-2018B.csv	rec	AUTOR	72	1	544
92.81045752	68-2018B.csv	rec	AUTOR	72	1	558
95.65217391	7-2018A.csv	rec	AUTOR	72	1	560
98.55072464	73-2018A.csv	rec	AUTOR	72	1	809
100	8-2018A.csv	rec	AUTOR	72	1	485
91.22807018	99-2018B.csv	rec	AUTOR	72	1	533
89.36170213	02-2018A.csv	rec	BALET	37	2	518
95.08196721	09-2018B.csv	rec	BALET	37	2	636
84.96240602	10-2018A.csv	rec	BALET	37	2	584
94.28571429	1-2018A.csv	rec	BALET	37	2	610
95.52238806	12-2018B.csv	rec	BALET	37	2	668
91.17647059	14-2018B.csv	rec	BALET	37	2	798
85.71428571	18-2018B.csv	rec	BALET	37	2	563
77.55102041	19-2018B.csv	rec	BALET	37	2	567
89.50617284	20-2018A.csv	rec	BALET	37	2	447
93.02325581	21-2018A.csv	rec	BALET	37	2	389
91.42857143	23-2018B.csv	rec	BALET	37	2	493
90.18404908	26-2018A.csv	rec	BALET	37	2	646
93.96984925	31-2018A.csv	rec	BALET	37	2	641
92.14285714	33-2018A.csv	rec	BALET	37	2	569
95.40229885	34-2018B.csv	rec	BALET	37	2	575
86.66666667	35-2018A.csv	rec	BALET	37	2	1130
81.72043011	36-2018B.csv	rec	BALET	37	2	700
95.6097561	37-2018A.csv	rec	BALET	37	2	848
98.20359281	40-2018A.csv	rec	BALET	37	2	683
88.33333333	4-2018B.csv	rec	BALET	37	2	758
88.57142857	42-2018A.csv	rec	BALET	37	2	490
90.72164948	43-2018A.csv	rec	BALET	37	2	577
93.10344828	44-2018B.csv	rec	BALET	37	2	484
89.28571429	45-2018A.csv	rec	BALET	37	2	546
94.87179487	48-2018A.csv	rec	BALET	37	2	501
77.03703704	50-2018A.csv	rec	BALET	37	2	800
84.7826087	53-2018B.csv	rec	BALET	37	2	712
90.72164948	54-2018B.csv	rec	BALET	37	2	473
91.66666667	55-2018B.csv	rec	BALET	37	2	682
96.45390071	56-2018A.csv	rec	BALET	37	2	579
92	56-2018B.csv	rec	BALET	37	2	704
86.13138686	59-2018A.csv	rec	BALET	37	2	570
94.11764706	61-2018B.csv	rec	BALET	37	2	632
96.42857143	6-2018B.csv	rec	BALET	37	2	451
91.78743961	63-2018A.csv	rec	BALET	37	2	582
95.6043956	65-2018B.csv	rec	BALET	37	2	574
89.83050847	67-2018B.csv	rec	BALET	37	2	976
91.78082192	68-2018B.csv	rec	BALET	37	2	556
92.68292683	7-2018A.csv	rec	BALET	37	2	470
98.63013699	73-2018A.csv	rec	BALET	37	2	420
94.68085106	8-2018A.csv	rec	BALET	37	2	664
95	99-2018B.csv	rec	BALET	37	2	651
92.64705882	09-2018B.csv	rec	BELEG	85	2	995
86.28571429	10-2018A.csv	rec	BELEG	85	2	705
95.74468085	1-2018A.csv	rec	BELEG	85	2	571
97	12-2018B.csv	rec	BELEG	85	2	743
84.7826087	14-2018B.csv	rec	BELEG	85	2	607
91.30434783	18-2018B.csv	rec	BELEG	85	2	872
90.29126214	20-2018A.csv	rec	BELEG	85	2	836
94.52054795	21-2018A.csv	rec	BELEG	85	2	616
93.75	23-2018B.csv	rec	BELEG	85	2	630
89.43661972	26-2018A.csv	rec	BELEG	85	2	881
95.15151515	31-2018A.csv	rec	BELEG	85	2	528
92.46575342	33-2018A.csv	rec	BELEG	85	2	661
93.93939394	34-2018B.csv	rec	BELEG	85	2	582
85.37735849	35-2018A.csv	rec	BELEG	85	2	1098
81.91489362	36-2018B.csv	rec	BELEG	85	2	668
96.89440994	37-2018A.csv	rec	BELEG	85	2	791
96.46464646	40-2018A.csv	rec	BELEG	85	2	632
89.43661972	42-2018A.csv	rec	BELEG	85	2	581
90.86538462	43-2018A.csv	rec	BELEG	85	2	1088
92	44-2018B.csv	rec	BELEG	85	2	658
88.51351351	45-2018A.csv	rec	BELEG	85	2	639
95.28301887	48-2018A.csv	rec	BELEG	85	2	544
77.38693467	50-2018A.csv	rec	BELEG	85	2	700
82.40740741	53-2018B.csv	rec	BELEG	85	2	739
85.18518519	54-2018B.csv	rec	BELEG	85	2	1033
89.65517241	55-2018B.csv	rec	BELEG	85	2	701
94.81132075	56-2018A.csv	rec	BELEG	85	2	542
89.09090909	56-2018B.csv	rec	BELEG	85	2	713
86.50306748	59-2018A.csv	rec	BELEG	85	2	511
95.23809524	61-2018B.csv	rec	BELEG	85	2	702
95.83333333	6-2018B.csv	rec	BELEG	85	2	712
92.10526316	63-2018A.csv	rec	BELEG	85	2	607
94.93670886	65-2018B.csv	rec	BELEG	85	2	777
88.0733945	67-2018B.csv	rec	BELEG	85	2	638
95.23809524	68-2018B.csv	rec	BELEG	85	2	818
92.14659686	7-2018A.csv	rec	BELEG	85	2	728
99.3006993	73-2018A.csv	rec	BELEG	85	2	520
94.73684211	8-2018A.csv	rec	BELEG	85	2	640
95.41284404	99-2018B.csv	rec	BELEG	85	2	931
87.09677419	02-2018A.csv	rec	BOJA	88	1	520
92.13483146	09-2018B.csv	rec	BOJA	88	1	623
87.05882353	10-2018A.csv	rec	BOJA	88	1	552
95	1-2018A.csv	rec	BOJA	88	1	660
96.62921348	12-2018B.csv	rec	BOJA	88	1	680
93.33333333	14-2018B.csv	rec	BOJA	88	1	769
93.2735426	18-2018B.csv	rec	BOJA	88	1	602
89.0625	19-2018B.csv	rec	BOJA	88	1	515
89.09090909	20-2018A.csv	rec	BOJA	88	1	411
95.23809524	21-2018A.csv	rec	BOJA	88	1	496
91	23-2018B.csv	rec	BOJA	88	1	462
86.11111111	26-2018A.csv	rec	BOJA	88	1	632
93.33333333	33-2018A.csv	rec	BOJA	88	1	514
92.9245283	34-2018B.csv	rec	BOJA	88	1	757
85.32110092	35-2018A.csv	rec	BOJA	88	1	820
82.63888889	36-2018B.csv	rec	BOJA	88	1	547
95.45454545	37-2018A.csv	rec	BOJA	88	1	552
98.57142857	40-2018A.csv	rec	BOJA	88	1	475
88.42592593	4-2018B.csv	rec	BOJA	88	1	717
91.13924051	42-2018A.csv	rec	BOJA	88	1	461
92.30769231	43-2018A.csv	rec	BOJA	88	1	529
92.46231156	44-2018B.csv	rec	BOJA	88	1	554
91.66666667	45-2018A.csv	rec	BOJA	88	1	798
96.66666667	48-2018A.csv	rec	BOJA	88	1	662
76.92307692	50-2018A.csv	rec	BOJA	88	1	606
82.80254777	53-2018B.csv	rec	BOJA	88	1	639
91.61290323	54-2018B.csv	rec	BOJA	88	1	510
94.97206704	55-2018B.csv	rec	BOJA	88	1	545
97.11538462	56-2018A.csv	rec	BOJA	88	1	497
93.61702128	56-2018B.csv	rec	BOJA	88	1	475
85.41666667	59-2018A.csv	rec	BOJA	88	1	646
96.05263158	61-2018B.csv	rec	BOJA	88	1	529
95.37572254	6-2018B.csv	rec	BOJA	88	1	1011
98.21428571	63-2018A.csv	rec	BOJA	88	1	536
94.71153846	65-2018B.csv	rec	BOJA	88	1	518
91.09589041	67-2018B.csv	rec	BOJA	88	1	565
92.70833333	68-2018B.csv	rec	BOJA	88	1	498
92.59259259	7-2018A.csv	rec	BOJA	88	1	489
98.95833333	73-2018A.csv	rec	BOJA	88	1	554
100	8-2018A.csv	rec	BOJA	88	1	613
91.62011173	99-2018B.csv	rec	BOJA	88	1	596
85.71428571	02-2018A.csv	rec	BRBLJANJE	56	1	829
92.38095238	09-2018B.csv	rec	BRBLJANJE	56	1	1053
81.25	10-2018A.csv	rec	BRBLJANJE	56	1	1361
92.64705882	1-2018A.csv	rec	BRBLJANJE	56	1	760
96.61016949	12-2018B.csv	rec	BRBLJANJE	56	1	803
92.41706161	14-2018B.csv	rec	BRBLJANJE	56	1	715
94.55782313	18-2018B.csv	rec	BRBLJANJE	56	1	628
89.16256158	19-2018B.csv	rec	BRBLJANJE	56	1	713
88.75	20-2018A.csv	rec	BRBLJANJE	56	1	677
89.71428571	23-2018B.csv	rec	BRBLJANJE	56	1	549
88.28828829	26-2018A.csv	rec	BRBLJANJE	56	1	1065
93.26923077	31-2018A.csv	rec	BRBLJANJE	56	1	563
92.15686275	33-2018A.csv	rec	BRBLJANJE	56	1	727
78.57142857	35-2018A.csv	rec	BRBLJANJE	56	1	1051
83.43558282	36-2018B.csv	rec	BRBLJANJE	56	1	746
96.2962963	37-2018A.csv	rec	BRBLJANJE	56	1	1148
100	40-2018A.csv	rec	BRBLJANJE	56	1	772
91.25	42-2018A.csv	rec	BRBLJANJE	56	1	645
89.28571429	43-2018A.csv	rec	BRBLJANJE	56	1	1002
92.41706161	44-2018B.csv	rec	BRBLJANJE	56	1	748
93.33333333	45-2018A.csv	rec	BRBLJANJE	56	1	800
96.77419355	48-2018A.csv	rec	BRBLJANJE	56	1	868
70.96774194	50-2018A.csv	rec	BRBLJANJE	56	1	1095
83.66013072	53-2018B.csv	rec	BRBLJANJE	56	1	1131
91.46341463	54-2018B.csv	rec	BRBLJANJE	56	1	722
95.33678756	55-2018B.csv	rec	BRBLJANJE	56	1	816
96	56-2018A.csv	rec	BRBLJANJE	56	1	678
93.93939394	56-2018B.csv	rec	BRBLJANJE	56	1	689
91.66666667	59-2018A.csv	rec	BRBLJANJE	56	1	879
95.36082474	61-2018B.csv	rec	BRBLJANJE	56	1	687
96.45390071	6-2018B.csv	rec	BRBLJANJE	56	1	824
94.87179487	63-2018A.csv	rec	BRBLJANJE	56	1	737
95.58823529	65-2018B.csv	rec	BRBLJANJE	56	1	728
89.47368421	67-2018B.csv	rec	BRBLJANJE	56	1	1205
93.03482587	68-2018B.csv	rec	BRBLJANJE	56	1	487
96	7-2018A.csv	rec	BRBLJANJE	56	1	858
100	73-2018A.csv	rec	BRBLJANJE	56	1	646
100	8-2018A.csv	rec	BRBLJANJE	56	1	778
91.57303371	99-2018B.csv	rec	BRBLJANJE	56	1	1201
89.47368421	02-2018A.csv	rec	BRDO	81	2	611
92.59259259	09-2018B.csv	rec	BRDO	81	2	926
85.79881657	10-2018A.csv	rec	BRDO	81	2	624
94.41860465	1-2018A.csv	rec	BRDO	81	2	539
95.12195122	12-2018B.csv	rec	BRDO	81	2	507
89.61038961	14-2018B.csv	rec	BRDO	81	2	495
88.88888889	18-2018B.csv	rec	BRDO	81	2	586
86.02150538	19-2018B.csv	rec	BRDO	81	2	529
90.11627907	20-2018A.csv	rec	BRDO	81	2	507
93.22033898	21-2018A.csv	rec	BRDO	81	2	496
94.25287356	23-2018B.csv	rec	BRDO	81	2	468
90.58823529	26-2018A.csv	rec	BRDO	81	2	684
95.0617284	31-2018A.csv	rec	BRDO	81	2	462
93.6416185	33-2018A.csv	rec	BRDO	81	2	429
94.11764706	34-2018B.csv	rec	BRDO	81	2	587
85.47486034	35-2018A.csv	rec	BRDO	81	2	691
80.76923077	36-2018B.csv	rec	BRDO	81	2	728
97.27891156	37-2018A.csv	rec	BRDO	81	2	537
96.66666667	40-2018A.csv	rec	BRDO	81	2	593
92	4-2018B.csv	rec	BRDO	81	2	887
89.01098901	42-2018A.csv	rec	BRDO	81	2	476
90.81632653	43-2018A.csv	rec	BRDO	81	2	550
91.11111111	44-2018B.csv	rec	BRDO	81	2	626
88.74172185	45-2018A.csv	rec	BRDO	81	2	613
94.62365591	48-2018A.csv	rec	BRDO	81	2	581
77.27272727	50-2018A.csv	rec	BRDO	81	2	711
86.2745098	53-2018B.csv	rec	BRDO	81	2	605
90	54-2018B.csv	rec	BRDO	81	2	525
92.06349206	55-2018B.csv	rec	BRDO	81	2	591
95.23809524	56-2018A.csv	rec	BRDO	81	2	476
92.5	56-2018B.csv	rec	BRDO	81	2	902
95.41284404	61-2018B.csv	rec	BRDO	81	2	703
95.0617284	6-2018B.csv	rec	BRDO	81	2	519
91.70506912	63-2018A.csv	rec	BRDO	81	2	628
94.59459459	65-2018B.csv	rec	BRDO	81	2	625
95.23809524	67-2018B.csv	rec	BRDO	81	2	893
91.89189189	68-2018B.csv	rec	BRDO	81	2	610
93.14285714	7-2018A.csv	rec	BRDO	81	2	580
98.82352941	73-2018A.csv	rec	BRDO	81	2	487
94.70198676	8-2018A.csv	rec	BRDO	81	2	616
95.58823529	99-2018B.csv	rec	BRDO	81	2	734
90.90909091	09-2018B.csv	rec	DAR	59	2	647
86.44067797	10-2018A.csv	rec	DAR	59	2	573
94.84536082	1-2018A.csv	rec	DAR	59	2	556
90.47619048	12-2018B.csv	rec	DAR	59	2	734
91.30434783	14-2018B.csv	rec	DAR	59	2	532
91.25	18-2018B.csv	rec	DAR	59	2	658
87.1559633	19-2018B.csv	rec	DAR	59	2	507
90.19607843	20-2018A.csv	rec	DAR	59	2	421
92.74611399	21-2018A.csv	rec	DAR	59	2	407
92.85714286	23-2018B.csv	rec	DAR	59	2	598
90.75144509	26-2018A.csv	rec	DAR	59	2	530
94.68085106	31-2018A.csv	rec	DAR	59	2	604
93.8547486	33-2018A.csv	rec	DAR	59	2	516
92.30769231	34-2018B.csv	rec	DAR	59	2	866
84.90566038	35-2018A.csv	rec	DAR	59	2	716
80	36-2018B.csv	rec	DAR	59	2	590
97.18309859	37-2018A.csv	rec	DAR	59	2	579
95.6097561	40-2018A.csv	rec	DAR	59	2	530
88.17204301	4-2018B.csv	rec	DAR	59	2	692
89.65517241	42-2018A.csv	rec	DAR	59	2	495
90.20979021	43-2018A.csv	rec	DAR	59	2	772
91.50943396	44-2018B.csv	rec	DAR	59	2	635
89.44723618	45-2018A.csv	rec	DAR	59	2	604
95.83333333	48-2018A.csv	rec	DAR	59	2	616
77.65957447	50-2018A.csv	rec	DAR	59	2	678
83.95061728	53-2018B.csv	rec	DAR	59	2	542
91.66666667	54-2018B.csv	rec	DAR	59	2	642
93.18181818	55-2018B.csv	rec	DAR	59	2	479
96.37681159	56-2018A.csv	rec	DAR	59	2	542
90.72164948	56-2018B.csv	rec	DAR	59	2	588
84.72222222	59-2018A.csv	rec	DAR	59	2	675
95.23809524	61-2018B.csv	rec	DAR	59	2	550
96.875	6-2018B.csv	rec	DAR	59	2	501
91.74311927	63-2018A.csv	rec	DAR	59	2	608
94.91525424	65-2018B.csv	rec	DAR	59	2	555
88.18181818	67-2018B.csv	rec	DAR	59	2	915
92.30769231	68-2018B.csv	rec	DAR	59	2	614
92.30769231	7-2018A.csv	rec	DAR	59	2	466
98.7012987	73-2018A.csv	rec	DAR	59	2	483
94.63087248	8-2018A.csv	rec	DAR	59	2	491
95.74468085	99-2018B.csv	rec	DAR	59	2	657
90.41916168	02-2018A.csv	rec	DEKOR	21	2	759
90	09-2018B.csv	rec	DEKOR	21	2	717
85.54216867	10-2018A.csv	rec	DEKOR	21	2	819
94.65240642	1-2018A.csv	rec	DEKOR	21	2	554
96.42857143	12-2018B.csv	rec	DEKOR	21	2	705
91.20879121	14-2018B.csv	rec	DEKOR	21	2	583
87.5	18-2018B.csv	rec	DEKOR	21	2	592
80	19-2018B.csv	rec	DEKOR	21	2	654
90.14084507	20-2018A.csv	rec	DEKOR	21	2	474
92.81437126	21-2018A.csv	rec	DEKOR	21	2	534
93.33333333	23-2018B.csv	rec	DEKOR	21	2	587
90.52631579	26-2018A.csv	rec	DEKOR	21	2	830
93.77990431	31-2018A.csv	rec	DEKOR	21	2	547
92.02898551	33-2018A.csv	rec	DEKOR	21	2	555
93.61702128	34-2018B.csv	rec	DEKOR	21	2	916
86.02150538	35-2018A.csv	rec	DEKOR	21	2	979
97.01492537	37-2018A.csv	rec	DEKOR	21	2	725
98.24561404	40-2018A.csv	rec	DEKOR	21	2	824
88.39285714	4-2018B.csv	rec	DEKOR	21	2	712
90	42-2018A.csv	rec	DEKOR	21	2	460
92.10526316	44-2018B.csv	rec	DEKOR	21	2	600
89.47368421	45-2018A.csv	rec	DEKOR	21	2	648
90.24390244	54-2018B.csv	rec	DEKOR	21	2	809
90.32258065	55-2018B.csv	rec	DEKOR	21	2	658
95	56-2018A.csv	rec	DEKOR	21	2	653
90	56-2018B.csv	rec	DEKOR	21	2	824
84.86238532	59-2018A.csv	rec	DEKOR	21	2	1337
95.65217391	61-2018B.csv	rec	DEKOR	21	2	956
96.15384615	6-2018B.csv	rec	DEKOR	21	2	718
93.29268293	63-2018A.csv	rec	DEKOR	21	2	944
96.03960396	65-2018B.csv	rec	DEKOR	21	2	630
93.33333333	68-2018B.csv	rec	DEKOR	21	2	692
92.53731343	7-2018A.csv	rec	DEKOR	21	2	780
98.77300614	73-2018A.csv	rec	DEKOR	21	2	688
95.12195122	8-2018A.csv	rec	DEKOR	21	2	757
94.82758621	99-2018B.csv	rec	DEKOR	21	2	829
89.94974874	02-2018A.csv	rec	DERBI	27	2	682
95.23809524	09-2018B.csv	rec	DERBI	27	2	593
86	10-2018A.csv	rec	DERBI	27	2	1100
94.33962264	1-2018A.csv	rec	DERBI	27	2	698
94.11764706	12-2018B.csv	rec	DERBI	27	2	685
88.70967742	14-2018B.csv	rec	DERBI	27	2	632
89.70588235	18-2018B.csv	rec	DERBI	27	2	874
65.2173913	19-2018B.csv	rec	DERBI	27	2	605
90.59405941	20-2018A.csv	rec	DERBI	27	2	683
93.42723005	21-2018A.csv	rec	DERBI	27	2	780
92.85714286	23-2018B.csv	rec	DERBI	27	2	565
89.70588235	26-2018A.csv	rec	DERBI	27	2	693
94	31-2018A.csv	rec	DERBI	27	2	683
93.88888889	33-2018A.csv	rec	DERBI	27	2	651
92.85714286	34-2018B.csv	rec	DERBI	27	2	672
85.05747126	35-2018A.csv	rec	DERBI	27	2	776
80	36-2018B.csv	rec	DERBI	27	2	781
95.90643275	37-2018A.csv	rec	DERBI	27	2	733
95.4954955	40-2018A.csv	rec	DERBI	27	2	579
88.23529412	4-2018B.csv	rec	DERBI	27	2	903
88.50574713	42-2018A.csv	rec	DERBI	27	2	461
90.25974026	43-2018A.csv	rec	DERBI	27	2	845
91.54929577	44-2018B.csv	rec	DERBI	27	2	999
88.94736842	45-2018A.csv	rec	DERBI	27	2	714
95.30516432	48-2018A.csv	rec	DERBI	27	2	664
77.89473684	50-2018A.csv	rec	DERBI	27	2	742
84.70588235	53-2018B.csv	rec	DERBI	27	2	846
94.85714286	56-2018A.csv	rec	DERBI	27	2	554
92.85714286	56-2018B.csv	rec	DERBI	27	2	759
95	61-2018B.csv	rec	DERBI	27	2	586
96.22641509	6-2018B.csv	rec	DERBI	27	2	542
91.70731707	63-2018A.csv	rec	DERBI	27	2	761
95	65-2018B.csv	rec	DERBI	27	2	630
93.75	67-2018B.csv	rec	DERBI	27	2	1328
92.25806452	7-2018A.csv	rec	DERBI	27	2	655
97.6076555	73-2018A.csv	rec	DERBI	27	2	608
94.73684211	8-2018A.csv	rec	DERBI	27	2	685
95.55555556	99-2018B.csv	rec	DERBI	27	2	669
87	02-2018A.csv	rec	DISANJE	52	1	487
92.1182266	09-2018B.csv	rec	DISANJE	52	1	805
85.48387097	10-2018A.csv	rec	DISANJE	52	1	643
93.33333333	1-2018A.csv	rec	DISANJE	52	1	524
95.65217391	12-2018B.csv	rec	DISANJE	52	1	810
93.125	14-2018B.csv	rec	DISANJE	52	1	534
93.18181818	18-2018B.csv	rec	DISANJE	52	1	611
90.05524862	19-2018B.csv	rec	DISANJE	52	1	548
95.34883721	20-2018A.csv	rec	DISANJE	52	1	614
96.15384615	21-2018A.csv	rec	DISANJE	52	1	442
91.17647059	23-2018B.csv	rec	DISANJE	52	1	431
86.84210526	26-2018A.csv	rec	DISANJE	52	1	569
93.69369369	31-2018A.csv	rec	DISANJE	52	1	436
90.66666667	33-2018A.csv	rec	DISANJE	52	1	528
93.22916667	34-2018B.csv	rec	DISANJE	52	1	510
85.4368932	35-2018A.csv	rec	DISANJE	52	1	798
83.88888889	36-2018B.csv	rec	DISANJE	52	1	508
95.74468085	37-2018A.csv	rec	DISANJE	52	1	582
98.64864865	40-2018A.csv	rec	DISANJE	52	1	512
90.20979021	4-2018B.csv	rec	DISANJE	52	1	598
85.71428571	42-2018A.csv	rec	DISANJE	52	1	502
91.17647059	43-2018A.csv	rec	DISANJE	52	1	537
92.2705314	44-2018B.csv	rec	DISANJE	52	1	550
92.68292683	45-2018A.csv	rec	DISANJE	52	1	913
97.91666667	48-2018A.csv	rec	DISANJE	52	1	502
74.69879518	50-2018A.csv	rec	DISANJE	52	1	733
85.23809524	53-2018B.csv	rec	DISANJE	52	1	595
91.61676647	54-2018B.csv	rec	DISANJE	52	1	729
94.70198676	55-2018B.csv	rec	DISANJE	52	1	574
96.22641509	56-2018A.csv	rec	DISANJE	52	1	535
93.33333333	56-2018B.csv	rec	DISANJE	52	1	539
92.59259259	59-2018A.csv	rec	DISANJE	52	1	540
95.29411765	61-2018B.csv	rec	DISANJE	52	1	589
95	6-2018B.csv	rec	DISANJE	52	1	741
96.2962963	63-2018A.csv	rec	DISANJE	52	1	530
95.27027027	65-2018B.csv	rec	DISANJE	52	1	501
89.22155689	67-2018B.csv	rec	DISANJE	52	1	858
92.59259259	68-2018B.csv	rec	DISANJE	52	1	657
96.96969697	7-2018A.csv	rec	DISANJE	52	1	555
98.4375	73-2018A.csv	rec	DISANJE	52	1	428
93.81443299	8-2018A.csv	rec	DISANJE	52	1	704
92.79279279	99-2018B.csv	rec	DISANJE	52	1	689
87.71929825	02-2018A.csv	rec	DODATAK	10	1	497
92.95774648	09-2018B.csv	rec	DODATAK	10	1	634
86.66666667	10-2018A.csv	rec	DODATAK	10	1	554
94	1-2018A.csv	rec	DODATAK	10	1	578
95.71428571	12-2018B.csv	rec	DODATAK	10	1	589
92.65536723	14-2018B.csv	rec	DODATAK	10	1	631
93.75	18-2018B.csv	rec	DODATAK	10	1	564
89.18918919	19-2018B.csv	rec	DODATAK	10	1	500
92.75362319	20-2018A.csv	rec	DODATAK	10	1	578
90.32258065	21-2018A.csv	rec	DODATAK	10	1	622
92.95774648	23-2018B.csv	rec	DODATAK	10	1	486
88.57142857	26-2018A.csv	rec	DODATAK	10	1	661
91.95402299	31-2018A.csv	rec	DODATAK	10	1	479
94.59459459	33-2018A.csv	rec	DODATAK	10	1	582
94.63087248	34-2018B.csv	rec	DODATAK	10	1	616
83.09859155	35-2018A.csv	rec	DODATAK	10	1	815
83.63636364	36-2018B.csv	rec	DODATAK	10	1	604
96.875	37-2018A.csv	rec	DODATAK	10	1	684
98.86363636	40-2018A.csv	rec	DODATAK	10	1	573
89.71428571	4-2018B.csv	rec	DODATAK	10	1	843
80.95238095	42-2018A.csv	rec	DODATAK	10	1	438
88.88888889	43-2018A.csv	rec	DODATAK	10	1	707
92.10526316	44-2018B.csv	rec	DODATAK	10	1	500
90	45-2018A.csv	rec	DODATAK	10	1	623
97.43589744	48-2018A.csv	rec	DODATAK	10	1	544
74.32432432	50-2018A.csv	rec	DODATAK	10	1	757
82.73381295	53-2018B.csv	rec	DODATAK	10	1	735
90.09433962	54-2018B.csv	rec	DODATAK	10	1	566
94.76190476	55-2018B.csv	rec	DODATAK	10	1	550
96.66666667	56-2018A.csv	rec	DODATAK	10	1	670
93.47826087	56-2018B.csv	rec	DODATAK	10	1	596
87.36842105	59-2018A.csv	rec	DODATAK	10	1	788
95.55555556	61-2018B.csv	rec	DODATAK	10	1	1235
93.95348837	6-2018B.csv	rec	DODATAK	10	1	619
98.14814815	63-2018A.csv	rec	DODATAK	10	1	844
94.21052632	65-2018B.csv	rec	DODATAK	10	1	559
87.68472906	67-2018B.csv	rec	DODATAK	10	1	612
92.90322581	68-2018B.csv	rec	DODATAK	10	1	560
93.33333333	7-2018A.csv	rec	DODATAK	10	1	1079
98.5915493	73-2018A.csv	rec	DODATAK	10	1	417
93.61702128	8-2018A.csv	rec	DODATAK	10	1	633
91.07142857	99-2018B.csv	rec	DODATAK	10	1	679
89.61748634	02-2018A.csv	rec	DOGA?AJ	11	2	522
93.75	09-2018B.csv	rec	DOGA?AJ	11	2	571
87.21461187	10-2018A.csv	rec	DOGA?AJ	11	2	633
94.51219512	1-2018A.csv	rec	DOGA?AJ	11	2	664
97.05882353	12-2018B.csv	rec	DOGA?AJ	11	2	786
86.84210526	14-2018B.csv	rec	DOGA?AJ	11	2	596
88.57142857	18-2018B.csv	rec	DOGA?AJ	11	2	585
77.77777778	19-2018B.csv	rec	DOGA?AJ	11	2	504
89.54248366	20-2018A.csv	rec	DOGA?AJ	11	2	523
92.22222222	21-2018A.csv	rec	DOGA?AJ	11	2	523
90.90909091	23-2018B.csv	rec	DOGA?AJ	11	2	452
90.27777778	26-2018A.csv	rec	DOGA?AJ	11	2	681
95.12195122	31-2018A.csv	rec	DOGA?AJ	11	2	496
93.37349398	33-2018A.csv	rec	DOGA?AJ	11	2	532
95.50561798	34-2018B.csv	rec	DOGA?AJ	11	2	661
84.52380952	35-2018A.csv	rec	DOGA?AJ	11	2	1098
83	36-2018B.csv	rec	DOGA?AJ	11	2	524
97.22222222	37-2018A.csv	rec	DOGA?AJ	11	2	644
98.06451613	40-2018A.csv	rec	DOGA?AJ	11	2	501
87.35632184	4-2018B.csv	rec	DOGA?AJ	11	2	691
88.76404494	42-2018A.csv	rec	DOGA?AJ	11	2	486
90.74074074	43-2018A.csv	rec	DOGA?AJ	11	2	561
91.46341463	44-2018B.csv	rec	DOGA?AJ	11	2	617
89.28571429	45-2018A.csv	rec	DOGA?AJ	11	2	932
95.37037037	48-2018A.csv	rec	DOGA?AJ	11	2	543
77.30496454	50-2018A.csv	rec	DOGA?AJ	11	2	509
83.82352941	53-2018B.csv	rec	DOGA?AJ	11	2	684
90.42553191	54-2018B.csv	rec	DOGA?AJ	11	2	548
88.63636364	55-2018B.csv	rec	DOGA?AJ	11	2	617
94.97206704	56-2018A.csv	rec	DOGA?AJ	11	2	485
89.70588235	56-2018B.csv	rec	DOGA?AJ	11	2	533
86.92810458	59-2018A.csv	rec	DOGA?AJ	11	2	635
94.84536082	61-2018B.csv	rec	DOGA?AJ	11	2	695
96.07843137	6-2018B.csv	rec	DOGA?AJ	11	2	582
91.50943396	63-2018A.csv	rec	DOGA?AJ	11	2	582
96.11650485	65-2018B.csv	rec	DOGA?AJ	11	2	493
89.79591837	67-2018B.csv	rec	DOGA?AJ	11	2	615
93.18181818	68-2018B.csv	rec	DOGA?AJ	11	2	584
93.00699301	7-2018A.csv	rec	DOGA?AJ	11	2	612
98.92473118	73-2018A.csv	rec	DOGA?AJ	11	2	421
94.88636364	8-2018A.csv	rec	DOGA?AJ	11	2	633
96.96969697	99-2018B.csv	rec	DOGA?AJ	11	2	609
86.51685393	02-2018A.csv	rec	DOLINA	42	1	581
91.86046512	09-2018B.csv	rec	DOLINA	42	1	781
85.14851485	10-2018A.csv	rec	DOLINA	42	1	679
93.75	1-2018A.csv	rec	DOLINA	42	1	558
96.79144385	12-2018B.csv	rec	DOLINA	42	1	672
93.52941176	14-2018B.csv	rec	DOLINA	42	1	596
93.56435644	18-2018B.csv	rec	DOLINA	42	1	621
93.33333333	20-2018A.csv	rec	DOLINA	42	1	967
92.10526316	21-2018A.csv	rec	DOLINA	42	1	603
91.32420091	23-2018B.csv	rec	DOLINA	42	1	598
87.5	26-2018A.csv	rec	DOLINA	42	1	672
91.52542373	31-2018A.csv	rec	DOLINA	42	1	561
95	34-2018B.csv	rec	DOLINA	42	1	638
80	35-2018A.csv	rec	DOLINA	42	1	801
83.52272727	36-2018B.csv	rec	DOLINA	42	1	812
96.51162791	37-2018A.csv	rec	DOLINA	42	1	1262
99.09090909	40-2018A.csv	rec	DOLINA	42	1	708
90.18404908	4-2018B.csv	rec	DOLINA	42	1	769
88.33333333	42-2018A.csv	rec	DOLINA	42	1	470
89.01098901	43-2018A.csv	rec	DOLINA	42	1	734
91.35802469	44-2018B.csv	rec	DOLINA	42	1	723
94.33962264	45-2018A.csv	rec	DOLINA	42	1	588
97.61904762	48-2018A.csv	rec	DOLINA	42	1	639
77.27272727	50-2018A.csv	rec	DOLINA	42	1	677
83.72093023	53-2018B.csv	rec	DOLINA	42	1	825
91.66666667	54-2018B.csv	rec	DOLINA	42	1	641
94.36619718	55-2018B.csv	rec	DOLINA	42	1	705
96.20253165	56-2018A.csv	rec	DOLINA	42	1	494
93.19727891	56-2018B.csv	rec	DOLINA	42	1	954
89.74358974	59-2018A.csv	rec	DOLINA	42	1	568
95.18716578	61-2018B.csv	rec	DOLINA	42	1	574
94.97206704	6-2018B.csv	rec	DOLINA	42	1	821
95.83333333	63-2018A.csv	rec	DOLINA	42	1	694
95.34883721	65-2018B.csv	rec	DOLINA	42	1	487
89.14285714	67-2018B.csv	rec	DOLINA	42	1	742
93.47826087	68-2018B.csv	rec	DOLINA	42	1	576
92.15686275	7-2018A.csv	rec	DOLINA	42	1	580
97.87234043	73-2018A.csv	rec	DOLINA	42	1	586
98.21428571	8-2018A.csv	rec	DOLINA	42	1	487
94.32624113	99-2018B.csv	rec	DOLINA	42	1	609
84.21052632	02-2018A.csv	rec	DRHTANJE	48	1	641
92.22797927	09-2018B.csv	rec	DRHTANJE	48	1	565
85.45454545	10-2018A.csv	rec	DRHTANJE	48	1	690
94.25287356	1-2018A.csv	rec	DRHTANJE	48	1	578
96.12903226	12-2018B.csv	rec	DRHTANJE	48	1	873
92.45283019	14-2018B.csv	rec	DRHTANJE	48	1	698
94.93670886	18-2018B.csv	rec	DRHTANJE	48	1	572
90.36144578	19-2018B.csv	rec	DRHTANJE	48	1	487
90.90909091	20-2018A.csv	rec	DRHTANJE	48	1	698
91.42857143	21-2018A.csv	rec	DRHTANJE	48	1	709
90.57591623	23-2018B.csv	rec	DRHTANJE	48	1	524
87.27272727	26-2018A.csv	rec	DRHTANJE	48	1	749
92.30769231	31-2018A.csv	rec	DRHTANJE	48	1	505
93.10344828	33-2018A.csv	rec	DRHTANJE	48	1	593
94.51219512	34-2018B.csv	rec	DRHTANJE	48	1	1190
84.7826087	35-2018A.csv	rec	DRHTANJE	48	1	685
83.22981366	36-2018B.csv	rec	DRHTANJE	48	1	988
96.20253165	37-2018A.csv	rec	DRHTANJE	48	1	1242
99.02912621	40-2018A.csv	rec	DRHTANJE	48	1	531
88.05970149	4-2018B.csv	rec	DRHTANJE	48	1	692
79.16666667	42-2018A.csv	rec	DRHTANJE	48	1	570
89.70588235	43-2018A.csv	rec	DRHTANJE	48	1	894
91.97860963	44-2018B.csv	rec	DRHTANJE	48	1	578
93.61702128	45-2018A.csv	rec	DRHTANJE	48	1	733
97.2972973	48-2018A.csv	rec	DRHTANJE	48	1	658
75.58139535	50-2018A.csv	rec	DRHTANJE	48	1	876
85.44600939	53-2018B.csv	rec	DRHTANJE	48	1	787
90.77669903	54-2018B.csv	rec	DRHTANJE	48	1	1114
94.88636364	55-2018B.csv	rec	DRHTANJE	48	1	674
96.05263158	56-2018A.csv	rec	DRHTANJE	48	1	487
94.08866995	56-2018B.csv	rec	DRHTANJE	48	1	567
87.34177215	59-2018A.csv	rec	DRHTANJE	48	1	878
95.37572254	61-2018B.csv	rec	DRHTANJE	48	1	649
93.65853659	6-2018B.csv	rec	DRHTANJE	48	1	780
98.30508475	63-2018A.csv	rec	DRHTANJE	48	1	627
95.45454545	65-2018B.csv	rec	DRHTANJE	48	1	514
89.34911243	67-2018B.csv	rec	DRHTANJE	48	1	777
93.05555556	68-2018B.csv	rec	DRHTANJE	48	1	701
93.18181818	7-2018A.csv	rec	DRHTANJE	48	1	736
98.18181818	73-2018A.csv	rec	DRHTANJE	48	1	501
98.07692308	8-2018A.csv	rec	DRHTANJE	48	1	584
92	99-2018B.csv	rec	DRHTANJE	48	1	728
92.20779221	09-2018B.csv	rec	GALOP	31	2	677
87.44186047	10-2018A.csv	rec	GALOP	31	2	953
94.40993789	1-2018A.csv	rec	GALOP	31	2	683
94.82758621	12-2018B.csv	rec	GALOP	31	2	778
91.58878505	14-2018B.csv	rec	GALOP	31	2	570
91.56626506	18-2018B.csv	rec	GALOP	31	2	675
80.3030303	19-2018B.csv	rec	GALOP	31	2	929
89.85507246	20-2018A.csv	rec	GALOP	31	2	708
93.26923077	23-2018B.csv	rec	GALOP	31	2	643
90.06622517	26-2018A.csv	rec	GALOP	31	2	969
93.78531073	33-2018A.csv	rec	GALOP	31	2	1028
96.15384615	34-2018B.csv	rec	GALOP	31	2	787
86.01398601	35-2018A.csv	rec	GALOP	31	2	1067
81.17647059	36-2018B.csv	rec	GALOP	31	2	750
96.21621622	37-2018A.csv	rec	GALOP	31	2	729
89.36170213	42-2018A.csv	rec	GALOP	31	2	622
90.57591623	43-2018A.csv	rec	GALOP	31	2	1008
91.26213592	44-2018B.csv	rec	GALOP	31	2	631
96.37681159	48-2018A.csv	rec	GALOP	31	2	658
76.5258216	50-2018A.csv	rec	GALOP	31	2	870
83.15789474	53-2018B.csv	rec	GALOP	31	2	960
86.66666667	54-2018B.csv	rec	GALOP	31	2	965
94	55-2018B.csv	rec	GALOP	31	2	806
94.95412844	56-2018A.csv	rec	GALOP	31	2	541
89.77272727	56-2018B.csv	rec	GALOP	31	2	998
94.44444444	6-2018B.csv	rec	GALOP	31	2	621
93.98496241	63-2018A.csv	rec	GALOP	31	2	785
96.07843137	65-2018B.csv	rec	GALOP	31	2	842
92.15686275	67-2018B.csv	rec	GALOP	31	2	1499
96	68-2018B.csv	rec	GALOP	31	2	770
92.95774648	7-2018A.csv	rec	GALOP	31	2	830
98.94736842	73-2018A.csv	rec	GALOP	31	2	713
95.30516432	8-2018A.csv	rec	GALOP	31	2	645
89.85507246	02-2018A.csv	rec	GLUMA	5	2	656
94	09-2018B.csv	rec	GLUMA	5	2	622
86.74033149	10-2018A.csv	rec	GLUMA	5	2	672
94.62365591	1-2018A.csv	rec	GLUMA	5	2	480
94.73684211	12-2018B.csv	rec	GLUMA	5	2	708
91.66666667	14-2018B.csv	rec	GLUMA	5	2	598
86.20689655	18-2018B.csv	rec	GLUMA	5	2	587
87.5	19-2018B.csv	rec	GLUMA	5	2	384
89.83050847	20-2018A.csv	rec	GLUMA	5	2	645
93.10344828	21-2018A.csv	rec	GLUMA	5	2	436
92.63157895	23-2018B.csv	rec	GLUMA	5	2	580
89.85507246	26-2018A.csv	rec	GLUMA	5	2	629
93.65853659	31-2018A.csv	rec	GLUMA	5	2	464
92.22797927	33-2018A.csv	rec	GLUMA	5	2	538
91.42857143	34-2018B.csv	rec	GLUMA	5	2	661
85.79234973	35-2018A.csv	rec	GLUMA	5	2	568
80.59701493	36-2018B.csv	rec	GLUMA	5	2	621
95.63106796	37-2018A.csv	rec	GLUMA	5	2	725
98.08917197	40-2018A.csv	rec	GLUMA	5	2	565
86.07594937	4-2018B.csv	rec	GLUMA	5	2	669
89.28571429	42-2018A.csv	rec	GLUMA	5	2	499
90.77669903	43-2018A.csv	rec	GLUMA	5	2	520
92.85714286	44-2018B.csv	rec	GLUMA	5	2	469
88.88888889	45-2018A.csv	rec	GLUMA	5	2	593
95.45454545	48-2018A.csv	rec	GLUMA	5	2	500
77.77777778	50-2018A.csv	rec	GLUMA	5	2	733
83.33333333	53-2018B.csv	rec	GLUMA	5	2	638
92.42424242	54-2018B.csv	rec	GLUMA	5	2	694
91.66666667	55-2018B.csv	rec	GLUMA	5	2	534
94.87179487	56-2018A.csv	rec	GLUMA	5	2	509
91.89189189	56-2018B.csv	rec	GLUMA	5	2	532
85.39325843	59-2018A.csv	rec	GLUMA	5	2	549
92.85714286	61-2018B.csv	rec	GLUMA	5	2	578
94.73684211	6-2018B.csv	rec	GLUMA	5	2	509
91.78082192	63-2018A.csv	rec	GLUMA	5	2	933
95.18072289	65-2018B.csv	rec	GLUMA	5	2	514
89.04109589	67-2018B.csv	rec	GLUMA	5	2	923
96.55172414	68-2018B.csv	rec	GLUMA	5	2	415
92.5	7-2018A.csv	rec	GLUMA	5	2	543
97.46192893	73-2018A.csv	rec	GLUMA	5	2	629
94.9044586	8-2018A.csv	rec	GLUMA	5	2	577
100	99-2018B.csv	rec	GLUMA	5	2	714
87.3015873	02-2018A.csv	rec	GROBLJE	84	1	608
92.99363057	09-2018B.csv	rec	GROBLJE	84	1	684
74.07407407	10-2018A.csv	rec	GROBLJE	84	1	842
93.75	1-2018A.csv	rec	GROBLJE	84	1	872
95.55555556	12-2018B.csv	rec	GROBLJE	84	1	710
92.06349206	14-2018B.csv	rec	GROBLJE	84	1	573
93.59605911	18-2018B.csv	rec	GROBLJE	84	1	547
89.71428571	19-2018B.csv	rec	GROBLJE	84	1	590
89.28571429	20-2018A.csv	rec	GROBLJE	84	1	604
91.66666667	21-2018A.csv	rec	GROBLJE	84	1	459
89.59537572	23-2018B.csv	rec	GROBLJE	84	1	548
88.88888889	26-2018A.csv	rec	GROBLJE	84	1	745
93.5483871	31-2018A.csv	rec	GROBLJE	84	1	562
91.66666667	33-2018A.csv	rec	GROBLJE	84	1	548
94.375	34-2018B.csv	rec	GROBLJE	84	1	691
84.68899522	36-2018B.csv	rec	GROBLJE	84	1	585
95.58823529	37-2018A.csv	rec	GROBLJE	84	1	701
100	40-2018A.csv	rec	GROBLJE	84	1	770
89.44444444	4-2018B.csv	rec	GROBLJE	84	1	604
91.35802469	42-2018A.csv	rec	GROBLJE	84	1	597
89.81481481	43-2018A.csv	rec	GROBLJE	84	1	856
91.52542373	44-2018B.csv	rec	GROBLJE	84	1	541
90.0990099	45-2018A.csv	rec	GROBLJE	84	1	524
96.84210526	48-2018A.csv	rec	GROBLJE	84	1	570
70.45454545	50-2018A.csv	rec	GROBLJE	84	1	923
85.97285068	53-2018B.csv	rec	GROBLJE	84	1	783
91.32947977	54-2018B.csv	rec	GROBLJE	84	1	843
94.48275862	55-2018B.csv	rec	GROBLJE	84	1	514
94.44444444	56-2018A.csv	rec	GROBLJE	84	1	510
93.72197309	56-2018B.csv	rec	GROBLJE	84	1	579
85.10638298	59-2018A.csv	rec	GROBLJE	84	1	659
95.94594595	61-2018B.csv	rec	GROBLJE	84	1	622
96.35036496	6-2018B.csv	rec	GROBLJE	84	1	521
96.77419355	63-2018A.csv	rec	GROBLJE	84	1	543
95.04504505	65-2018B.csv	rec	GROBLJE	84	1	888
90.78014184	67-2018B.csv	rec	GROBLJE	84	1	953
93.30357143	68-2018B.csv	rec	GROBLJE	84	1	538
98.7654321	73-2018A.csv	rec	GROBLJE	84	1	473
97.77777778	8-2018A.csv	rec	GROBLJE	84	1	607
86.66666667	02-2018A.csv	rec	GROM	66	1	450
91.90751445	09-2018B.csv	rec	GROM	66	1	559
85.07462687	10-2018A.csv	rec	GROM	66	1	631
93.10344828	1-2018A.csv	rec	GROM	66	1	582
96.85863874	12-2018B.csv	rec	GROM	66	1	891
92.53731343	14-2018B.csv	rec	GROM	66	1	521
93.5483871	18-2018B.csv	rec	GROM	66	1	525
89.10891089	19-2018B.csv	rec	GROM	66	1	622
91.30434783	20-2018A.csv	rec	GROM	66	1	507
94.64285714	21-2018A.csv	rec	GROM	66	1	476
91.03773585	23-2018B.csv	rec	GROM	66	1	470
89.0625	26-2018A.csv	rec	GROM	66	1	709
91.80327869	31-2018A.csv	rec	GROM	66	1	465
91.50943396	33-2018A.csv	rec	GROM	66	1	574
91.92825112	34-2018B.csv	rec	GROM	66	1	425
85.22727273	35-2018A.csv	rec	GROM	66	1	609
83.94160584	36-2018B.csv	rec	GROM	66	1	780
97.36842105	37-2018A.csv	rec	GROM	66	1	650
100	40-2018A.csv	rec	GROM	66	1	565
89.83050847	4-2018B.csv	rec	GROM	66	1	626
89.55223881	42-2018A.csv	rec	GROM	66	1	533
88.88888889	43-2018A.csv	rec	GROM	66	1	560
90.97744361	44-2018B.csv	rec	GROM	66	1	516
92.5	45-2018A.csv	rec	GROM	66	1	421
97.87234043	48-2018A.csv	rec	GROM	66	1	592
76.47058824	50-2018A.csv	rec	GROM	66	1	1052
82.85714286	53-2018B.csv	rec	GROM	66	1	631
91.39784946	54-2018B.csv	rec	GROM	66	1	484
95.13513514	55-2018B.csv	rec	GROM	66	1	545
95.12195122	56-2018A.csv	rec	GROM	66	1	497
93.60730594	56-2018B.csv	rec	GROM	66	1	595
86.81318681	59-2018A.csv	rec	GROM	66	1	640
95.65217391	61-2018B.csv	rec	GROM	66	1	512
95.26627219	6-2018B.csv	rec	GROM	66	1	539
98.27586207	63-2018A.csv	rec	GROM	66	1	440
95.26627219	65-2018B.csv	rec	GROM	66	1	478
87.43718593	67-2018B.csv	rec	GROM	66	1	500
93.29268293	68-2018B.csv	rec	GROM	66	1	673
96.66666667	7-2018A.csv	rec	GROM	66	1	629
98.30508475	73-2018A.csv	rec	GROM	66	1	453
96.96969697	8-2018A.csv	rec	GROM	66	1	547
92.1182266	99-2018B.csv	rec	GROM	66	1	597
89.52879581	02-2018A.csv	rec	GUTLJAJ	25	2	631
92.5	09-2018B.csv	rec	GUTLJAJ	25	2	784
86.18421053	10-2018A.csv	rec	GUTLJAJ	25	2	795
95.52238806	1-2018A.csv	rec	GUTLJAJ	25	2	622
95	12-2018B.csv	rec	GUTLJAJ	25	2	900
88.13559322	14-2018B.csv	rec	GUTLJAJ	25	2	1069
90.32258065	18-2018B.csv	rec	GUTLJAJ	25	2	732
80.59701493	19-2018B.csv	rec	GUTLJAJ	25	2	561
89.82035928	20-2018A.csv	rec	GUTLJAJ	25	2	524
94.73684211	21-2018A.csv	rec	GUTLJAJ	25	2	496
92.78350515	23-2018B.csv	rec	GUTLJAJ	25	2	466
90.625	26-2018A.csv	rec	GUTLJAJ	25	2	641
94.25287356	31-2018A.csv	rec	GUTLJAJ	25	2	476
92.23300971	33-2018A.csv	rec	GUTLJAJ	25	2	762
95.65217391	34-2018B.csv	rec	GUTLJAJ	25	2	640
80	36-2018B.csv	rec	GUTLJAJ	25	2	694
95.91836735	37-2018A.csv	rec	GUTLJAJ	25	2	729
96.33507853	40-2018A.csv	rec	GUTLJAJ	25	2	693
85.71428571	4-2018B.csv	rec	GUTLJAJ	25	2	797
89.15662651	42-2018A.csv	rec	GUTLJAJ	25	2	524
90.39548023	43-2018A.csv	rec	GUTLJAJ	25	2	797
91.89189189	44-2018B.csv	rec	GUTLJAJ	25	2	1030
88.77005348	45-2018A.csv	rec	GUTLJAJ	25	2	861
95.53072626	48-2018A.csv	rec	GUTLJAJ	25	2	632
78.34394904	50-2018A.csv	rec	GUTLJAJ	25	2	699
85.71428571	53-2018B.csv	rec	GUTLJAJ	25	2	863
90.625	54-2018B.csv	rec	GUTLJAJ	25	2	779
91.52542373	55-2018B.csv	rec	GUTLJAJ	25	2	692
94.66019417	56-2018A.csv	rec	GUTLJAJ	25	2	461
93.5483871	56-2018B.csv	rec	GUTLJAJ	25	2	980
86.33093525	59-2018A.csv	rec	GUTLJAJ	25	2	637
93.10344828	61-2018B.csv	rec	GUTLJAJ	25	2	623
95.45454545	6-2018B.csv	rec	GUTLJAJ	25	2	606
91.81818182	63-2018A.csv	rec	GUTLJAJ	25	2	653
95.65217391	65-2018B.csv	rec	GUTLJAJ	25	2	668
89.47368421	67-2018B.csv	rec	GUTLJAJ	25	2	978
93.2038835	68-2018B.csv	rec	GUTLJAJ	25	2	650
92.48826291	7-2018A.csv	rec	GUTLJAJ	25	2	689
98.90710383	73-2018A.csv	rec	GUTLJAJ	25	2	469
94.92385787	8-2018A.csv	rec	GUTLJAJ	25	2	769
95.23809524	99-2018B.csv	rec	GUTLJAJ	25	2	674
90.13157895	02-2018A.csv	rec	IMOVINA	19	2	626
95	09-2018B.csv	rec	IMOVINA	19	2	476
87.38317757	10-2018A.csv	rec	IMOVINA	19	2	1270
94.47236181	1-2018A.csv	rec	IMOVINA	19	2	677
96.73913043	12-2018B.csv	rec	IMOVINA	19	2	1222
90.8045977	14-2018B.csv	rec	IMOVINA	19	2	853
92.59259259	18-2018B.csv	rec	IMOVINA	19	2	796
76.59574468	19-2018B.csv	rec	IMOVINA	19	2	560
90.22556391	20-2018A.csv	rec	IMOVINA	19	2	645
94.48275862	21-2018A.csv	rec	IMOVINA	19	2	397
92.72727273	23-2018B.csv	rec	IMOVINA	19	2	749
89.47368421	26-2018A.csv	rec	IMOVINA	19	2	699
93.98496241	31-2018A.csv	rec	IMOVINA	19	2	563
92.12962963	33-2018A.csv	rec	IMOVINA	19	2	784
95.78947368	34-2018B.csv	rec	IMOVINA	19	2	938
85.49222798	35-2018A.csv	rec	IMOVINA	19	2	749
95.93908629	37-2018A.csv	rec	IMOVINA	19	2	746
95.89041096	40-2018A.csv	rec	IMOVINA	19	2	560
88.42105263	4-2018B.csv	rec	IMOVINA	19	2	654
90.06622517	42-2018A.csv	rec	IMOVINA	19	2	701
90.86757991	43-2018A.csv	rec	IMOVINA	19	2	732
91.17647059	44-2018B.csv	rec	IMOVINA	19	2	578
89.47368421	45-2018A.csv	rec	IMOVINA	19	2	672
95.56962025	48-2018A.csv	rec	IMOVINA	19	2	536
82.35294118	53-2018B.csv	rec	IMOVINA	19	2	847
89.33333333	54-2018B.csv	rec	IMOVINA	19	2	760
91.22807018	55-2018B.csv	rec	IMOVINA	19	2	581
96.62162162	56-2018A.csv	rec	IMOVINA	19	2	456
88.33333333	56-2018B.csv	rec	IMOVINA	19	2	827
85.16483516	59-2018A.csv	rec	IMOVINA	19	2	793
94.73684211	61-2018B.csv	rec	IMOVINA	19	2	531
96.61016949	6-2018B.csv	rec	IMOVINA	19	2	445
93.10344828	63-2018A.csv	rec	IMOVINA	19	2	743
95	65-2018B.csv	rec	IMOVINA	19	2	587
93.93939394	67-2018B.csv	rec	IMOVINA	19	2	849
93.81443299	68-2018B.csv	rec	IMOVINA	19	2	553
92.54658385	7-2018A.csv	rec	IMOVINA	19	2	550
98.80239521	73-2018A.csv	rec	IMOVINA	19	2	482
95.12195122	8-2018A.csv	rec	IMOVINA	19	2	513
95.83333333	99-2018B.csv	rec	IMOVINA	19	2	687
87.87878788	02-2018A.csv	rec	JARAK	78	1	571
92.16589862	09-2018B.csv	rec	JARAK	78	1	582
84.76190476	10-2018A.csv	rec	JARAK	78	1	689
95.12195122	1-2018A.csv	rec	JARAK	78	1	833
96.68508287	12-2018B.csv	rec	JARAK	78	1	726
93.49112426	14-2018B.csv	rec	JARAK	78	1	791
93.90862944	18-2018B.csv	rec	JARAK	78	1	578
89.32038835	19-2018B.csv	rec	JARAK	78	1	662
89.33333333	20-2018A.csv	rec	JARAK	78	1	517
93.87755102	21-2018A.csv	rec	JARAK	78	1	556
89.83050847	23-2018B.csv	rec	JARAK	78	1	621
87.12871287	26-2018A.csv	rec	JARAK	78	1	596
92.30769231	31-2018A.csv	rec	JARAK	78	1	577
91.04477612	33-2018A.csv	rec	JARAK	78	1	539
93.40659341	34-2018B.csv	rec	JARAK	78	1	717
81.53846154	35-2018A.csv	rec	JARAK	78	1	1056
95.65217391	37-2018A.csv	rec	JARAK	78	1	652
98.14814815	40-2018A.csv	rec	JARAK	78	1	546
89.55223881	4-2018B.csv	rec	JARAK	78	1	770
89.69072165	42-2018A.csv	rec	JARAK	78	1	573
93.47826087	43-2018A.csv	rec	JARAK	78	1	657
91.15646259	44-2018B.csv	rec	JARAK	78	1	797
88.88888889	45-2018A.csv	rec	JARAK	78	1	649
96.82539683	48-2018A.csv	rec	JARAK	78	1	753
76.76767677	50-2018A.csv	rec	JARAK	78	1	654
85.50724638	53-2018B.csv	rec	JARAK	78	1	959
91.66666667	54-2018B.csv	rec	JARAK	78	1	798
95	55-2018B.csv	rec	JARAK	78	1	736
96.42857143	56-2018A.csv	rec	JARAK	78	1	519
93.51851852	56-2018B.csv	rec	JARAK	78	1	652
86.84210526	59-2018A.csv	rec	JARAK	78	1	578
95.77464789	61-2018B.csv	rec	JARAK	78	1	601
96.12903226	6-2018B.csv	rec	JARAK	78	1	596
92.77108434	63-2018A.csv	rec	JARAK	78	1	594
95.16129032	65-2018B.csv	rec	JARAK	78	1	681
88.74172185	67-2018B.csv	rec	JARAK	78	1	1126
92.78350515	68-2018B.csv	rec	JARAK	78	1	533
94	7-2018A.csv	rec	JARAK	78	1	655
98.27586207	73-2018A.csv	rec	JARAK	78	1	608
93.67088608	8-2018A.csv	rec	JARAK	78	1	877
91.75824176	99-2018B.csv	rec	JARAK	78	1	810
90.56603774	02-2018A.csv	rec	JATO	67	2	922
94.17475728	09-2018B.csv	rec	JATO	67	2	588
85.625	10-2018A.csv	rec	JATO	67	2	712
94.68085106	1-2018A.csv	rec	JATO	67	2	560
95.23809524	12-2018B.csv	rec	JATO	67	2	768
86.2745098	14-2018B.csv	rec	JATO	67	2	685
84.52380952	19-2018B.csv	rec	JATO	67	2	974
90.95022624	20-2018A.csv	rec	JATO	67	2	481
92.78350515	21-2018A.csv	rec	JATO	67	2	692
92.42424242	23-2018B.csv	rec	JATO	67	2	488
90.25974026	26-2018A.csv	rec	JATO	67	2	723
93.75	31-2018A.csv	rec	JATO	67	2	532
93.45238095	33-2018A.csv	rec	JATO	67	2	532
95.6043956	34-2018B.csv	rec	JATO	67	2	570
85.71428571	35-2018A.csv	rec	JATO	67	2	509
80.26315789	36-2018B.csv	rec	JATO	67	2	774
96.31578947	37-2018A.csv	rec	JATO	67	2	512
96.62921348	40-2018A.csv	rec	JATO	67	2	728
87.87878788	4-2018B.csv	rec	JATO	67	2	757
88.63636364	42-2018A.csv	rec	JATO	67	2	555
90.47619048	43-2018A.csv	rec	JATO	67	2	639
92.72727273	44-2018B.csv	rec	JATO	67	2	543
90.04739336	45-2018A.csv	rec	JATO	67	2	715
94.81865285	48-2018A.csv	rec	JATO	67	2	618
76.60550459	50-2018A.csv	rec	JATO	67	2	1095
82.17821782	53-2018B.csv	rec	JATO	67	2	637
92.53731343	54-2018B.csv	rec	JATO	67	2	607
90.76923077	55-2018B.csv	rec	JATO	67	2	558
95.04950495	56-2018A.csv	rec	JATO	67	2	492
90.2173913	56-2018B.csv	rec	JATO	67	2	604
84.57943925	59-2018A.csv	rec	JATO	67	2	614
92.59259259	61-2018B.csv	rec	JATO	67	2	747
95.52238806	6-2018B.csv	rec	JATO	67	2	566
92.06349206	63-2018A.csv	rec	JATO	67	2	1009
96.42857143	65-2018B.csv	rec	JATO	67	2	674
92	67-2018B.csv	rec	JATO	67	2	1117
93.40659341	68-2018B.csv	rec	JATO	67	2	526
92.38095238	7-2018A.csv	rec	JATO	67	2	855
97.52475248	73-2018A.csv	rec	JATO	67	2	565
94.79768786	8-2018A.csv	rec	JATO	67	2	770
100	99-2018B.csv	rec	JATO	67	2	702
89.74358974	02-2018A.csv	rec	KANAL	61	2	597
93.61702128	09-2018B.csv	rec	KANAL	61	2	526
86.09271523	10-2018A.csv	rec	KANAL	61	2	556
94.68599034	1-2018A.csv	rec	KANAL	61	2	634
96.34146341	12-2018B.csv	rec	KANAL	61	2	656
86.79245283	14-2018B.csv	rec	KANAL	61	2	482
88.46153846	18-2018B.csv	rec	KANAL	61	2	719
84.3373494	19-2018B.csv	rec	KANAL	61	2	527
89.9408284	20-2018A.csv	rec	KANAL	61	2	574
95.07042254	21-2018A.csv	rec	KANAL	61	2	403
92.70833333	23-2018B.csv	rec	KANAL	61	2	380
89.58333333	26-2018A.csv	rec	KANAL	61	2	812
93.68932039	31-2018A.csv	rec	KANAL	61	2	515
93.16770186	33-2018A.csv	rec	KANAL	61	2	506
92.59259259	34-2018B.csv	rec	KANAL	61	2	765
85.81560284	35-2018A.csv	rec	KANAL	61	2	750
84.82142857	36-2018B.csv	rec	KANAL	61	2	717
94.52054795	37-2018A.csv	rec	KANAL	61	2	815
98.55072464	40-2018A.csv	rec	KANAL	61	2	570
87.69230769	4-2018B.csv	rec	KANAL	61	2	1251
89.17197452	42-2018A.csv	rec	KANAL	61	2	541
90	43-2018A.csv	rec	KANAL	61	2	574
92.98245614	44-2018B.csv	rec	KANAL	61	2	584
88.82978723	45-2018A.csv	rec	KANAL	61	2	529
96.07843137	48-2018A.csv	rec	KANAL	61	2	611
77.92207792	50-2018A.csv	rec	KANAL	61	2	558
85.18518519	53-2018B.csv	rec	KANAL	61	2	716
91.93548387	54-2018B.csv	rec	KANAL	61	2	545
93.26923077	55-2018B.csv	rec	KANAL	61	2	917
96.26865672	56-2018A.csv	rec	KANAL	61	2	436
89.0625	56-2018B.csv	rec	KANAL	61	2	630
85.02673797	59-2018A.csv	rec	KANAL	61	2	775
95.83333333	61-2018B.csv	rec	KANAL	61	2	579
95.55555556	6-2018B.csv	rec	KANAL	61	2	502
91.85520362	63-2018A.csv	rec	KANAL	61	2	543
95.53571429	65-2018B.csv	rec	KANAL	61	2	510
91.66666667	67-2018B.csv	rec	KANAL	61	2	675
94.33962264	68-2018B.csv	rec	KANAL	61	2	511
92.15686275	7-2018A.csv	rec	KANAL	61	2	531
98.85057471	73-2018A.csv	rec	KANAL	61	2	428
94.28571429	8-2018A.csv	rec	KANAL	61	2	633
96.66666667	99-2018B.csv	rec	KANAL	61	2	669
92.41706161	09-2018B.csv	rec	KLIKTANJE	74	1	661
85.91549296	10-2018A.csv	rec	KLIKTANJE	74	1	1245
94.44444444	1-2018A.csv	rec	KLIKTANJE	74	1	1230
95.74468085	12-2018B.csv	rec	KLIKTANJE	74	1	959
92.1875	14-2018B.csv	rec	KLIKTANJE	74	1	585
94.44444444	18-2018B.csv	rec	KLIKTANJE	74	1	659
89	19-2018B.csv	rec	KLIKTANJE	74	1	709
94.87179487	20-2018A.csv	rec	KLIKTANJE	74	1	642
89.65517241	21-2018A.csv	rec	KLIKTANJE	74	1	685
90.3030303	23-2018B.csv	rec	KLIKTANJE	74	1	588
87.93103448	26-2018A.csv	rec	KLIKTANJE	74	1	1208
92.78350515	31-2018A.csv	rec	KLIKTANJE	74	1	637
91.30434783	33-2018A.csv	rec	KLIKTANJE	74	1	859
93.6416185	34-2018B.csv	rec	KLIKTANJE	74	1	677
79.06976744	35-2018A.csv	rec	KLIKTANJE	74	1	1071
83.83233533	36-2018B.csv	rec	KLIKTANJE	74	1	548
96.1038961	37-2018A.csv	rec	KLIKTANJE	74	1	976
100	40-2018A.csv	rec	KLIKTANJE	74	1	1008
88.1443299	4-2018B.csv	rec	KLIKTANJE	74	1	868
91.46341463	42-2018A.csv	rec	KLIKTANJE	74	1	556
89.77272727	43-2018A.csv	rec	KLIKTANJE	74	1	915
91.21621622	44-2018B.csv	rec	KLIKTANJE	74	1	947
93.05555556	45-2018A.csv	rec	KLIKTANJE	74	1	968
96.93877551	48-2018A.csv	rec	KLIKTANJE	74	1	839
72.4137931	50-2018A.csv	rec	KLIKTANJE	74	1	1145
86.03603604	53-2018B.csv	rec	KLIKTANJE	74	1	779
90.90909091	54-2018B.csv	rec	KLIKTANJE	74	1	771
94.61883408	55-2018B.csv	rec	KLIKTANJE	74	1	833
97.05882353	56-2018A.csv	rec	KLIKTANJE	74	1	596
93.75	56-2018B.csv	rec	KLIKTANJE	74	1	986
85.54216867	59-2018A.csv	rec	KLIKTANJE	74	1	1298
95.94594595	61-2018B.csv	rec	KLIKTANJE	74	1	958
98.07692308	63-2018A.csv	rec	KLIKTANJE	74	1	920
96.2406015	65-2018B.csv	rec	KLIKTANJE	74	1	731
87.62376238	67-2018B.csv	rec	KLIKTANJE	74	1	757
93.125	68-2018B.csv	rec	KLIKTANJE	74	1	735
93.25842697	7-2018A.csv	rec	KLIKTANJE	74	1	1136
99.06542056	73-2018A.csv	rec	KLIKTANJE	74	1	546
100	8-2018A.csv	rec	KLIKTANJE	74	1	561
94.48275862	99-2018B.csv	rec	KLIKTANJE	74	1	712
88.0733945	02-2018A.csv	rec	KLUB	90	1	487
92.30769231	09-2018B.csv	rec	KLUB	90	1	677
86.48648649	10-2018A.csv	rec	KLUB	90	1	488
95.23809524	1-2018A.csv	rec	KLUB	90	1	511
96.1038961	12-2018B.csv	rec	KLUB	90	1	762
92.42424242	14-2018B.csv	rec	KLUB	90	1	714
94.48275862	18-2018B.csv	rec	KLUB	90	1	747
90.34482759	19-2018B.csv	rec	KLUB	90	1	497
87.95180723	20-2018A.csv	rec	KLUB	90	1	720
94.91525424	21-2018A.csv	rec	KLUB	90	1	438
91.36363636	23-2018B.csv	rec	KLUB	90	1	791
85.10638298	26-2018A.csv	rec	KLUB	90	1	504
93.24324324	31-2018A.csv	rec	KLUB	90	1	468
91.35802469	33-2018A.csv	rec	KLUB	90	1	637
94.44444444	34-2018B.csv	rec	KLUB	90	1	548
82.60869565	35-2018A.csv	rec	KLUB	90	1	661
84.5410628	36-2018B.csv	rec	KLUB	90	1	603
97.2972973	37-2018A.csv	rec	KLUB	90	1	644
97.87234043	40-2018A.csv	rec	KLUB	90	1	497
88.54166667	4-2018B.csv	rec	KLUB	90	1	627
92.04545455	42-2018A.csv	rec	KLUB	90	1	367
89.23076923	43-2018A.csv	rec	KLUB	90	1	567
92.53731343	44-2018B.csv	rec	KLUB	90	1	749
93.33333333	45-2018A.csv	rec	KLUB	90	1	572
97.05882353	48-2018A.csv	rec	KLUB	90	1	486
85.90909091	53-2018B.csv	rec	KLUB	90	1	744
90	54-2018B.csv	rec	KLUB	90	1	740
94.92385787	55-2018B.csv	rec	KLUB	90	1	833
95.65217391	56-2018A.csv	rec	KLUB	90	1	416
93.48837209	56-2018B.csv	rec	KLUB	90	1	675
86.59793814	59-2018A.csv	rec	KLUB	90	1	737
95.15151515	61-2018B.csv	rec	KLUB	90	1	545
96.27329193	6-2018B.csv	rec	KLUB	90	1	444
97.43589744	63-2018A.csv	rec	KLUB	90	1	617
94.3877551	65-2018B.csv	rec	KLUB	90	1	495
88.37209302	67-2018B.csv	rec	KLUB	90	1	618
92.96482412	68-2018B.csv	rec	KLUB	90	1	494
92.85714286	7-2018A.csv	rec	KLUB	90	1	576
98.66666667	73-2018A.csv	rec	KLUB	90	1	434
100	8-2018A.csv	rec	KLUB	90	1	690
91.57894737	99-2018B.csv	rec	KLUB	90	1	656
90.14778325	02-2018A.csv	rec	KOPIJA	23	2	710
94.49541284	09-2018B.csv	rec	KOPIJA	23	2	675
87.37864078	10-2018A.csv	rec	KOPIJA	23	2	598
94.54545455	1-2018A.csv	rec	KOPIJA	23	2	584
96.33027523	12-2018B.csv	rec	KOPIJA	23	2	713
87.27272727	14-2018B.csv	rec	KOPIJA	23	2	680
91.4893617	18-2018B.csv	rec	KOPIJA	23	2	532
67.74193548	19-2018B.csv	rec	KOPIJA	23	2	867
90.37433155	20-2018A.csv	rec	KOPIJA	23	2	523
94.55782313	21-2018A.csv	rec	KOPIJA	23	2	934
93.40659341	23-2018B.csv	rec	KOPIJA	23	2	502
90.49773756	26-2018A.csv	rec	KOPIJA	23	2	723
93.59605911	31-2018A.csv	rec	KOPIJA	23	2	544
92.34693878	33-2018A.csv	rec	KOPIJA	23	2	563
93.44262295	34-2018B.csv	rec	KOPIJA	23	2	493
86.46616541	35-2018A.csv	rec	KOPIJA	23	2	693
80.45977011	36-2018B.csv	rec	KOPIJA	23	2	884
96	37-2018A.csv	rec	KOPIJA	23	2	756
96.44670051	40-2018A.csv	rec	KOPIJA	23	2	546
86.66666667	4-2018B.csv	rec	KOPIJA	23	2	638
90.04739336	42-2018A.csv	rec	KOPIJA	23	2	611
90.37433155	43-2018A.csv	rec	KOPIJA	23	2	655
90.72164948	44-2018B.csv	rec	KOPIJA	23	2	795
88.88888889	45-2018A.csv	rec	KOPIJA	23	2	673
94.79166667	48-2018A.csv	rec	KOPIJA	23	2	896
76.57657658	50-2018A.csv	rec	KOPIJA	23	2	598
83.78378378	53-2018B.csv	rec	KOPIJA	23	2	628
91.37931034	54-2018B.csv	rec	KOPIJA	23	2	897
92.40506329	55-2018B.csv	rec	KOPIJA	23	2	576
94.85981308	56-2018A.csv	rec	KOPIJA	23	2	492
89.61038961	56-2018B.csv	rec	KOPIJA	23	2	589
86.84210526	59-2018A.csv	rec	KOPIJA	23	2	605
93.5483871	61-2018B.csv	rec	KOPIJA	23	2	1067
95.29411765	6-2018B.csv	rec	KOPIJA	23	2	470
93.08176101	63-2018A.csv	rec	KOPIJA	23	2	539
94.44444444	65-2018B.csv	rec	KOPIJA	23	2	604
90.16393443	67-2018B.csv	rec	KOPIJA	23	2	699
96.42857143	68-2018B.csv	rec	KOPIJA	23	2	476
92.61083744	7-2018A.csv	rec	KOPIJA	23	2	766
98.8372093	73-2018A.csv	rec	KOPIJA	23	2	396
94.59459459	8-2018A.csv	rec	KOPIJA	23	2	765
96.38554217	99-2018B.csv	rec	KOPIJA	23	2	579
87.5	02-2018A.csv	rec	KOŠARKA	50	1	693
92.2705314	09-2018B.csv	rec	KOŠARKA	50	1	751
82.69230769	10-2018A.csv	rec	KOŠARKA	50	1	547
94.11764706	1-2018A.csv	rec	KOŠARKA	50	1	480
96.95431472	12-2018B.csv	rec	KOŠARKA	50	1	923
92.41071429	14-2018B.csv	rec	KOŠARKA	50	1	625
94.25287356	18-2018B.csv	rec	KOŠARKA	50	1	555
88.94736842	19-2018B.csv	rec	KOŠARKA	50	1	505
89.47368421	20-2018A.csv	rec	KOŠARKA	50	1	796
95.12195122	21-2018A.csv	rec	KOŠARKA	50	1	492
89.94413408	23-2018B.csv	rec	KOŠARKA	50	1	493
85.41666667	26-2018A.csv	rec	KOŠARKA	50	1	512
92.75362319	31-2018A.csv	rec	KOŠARKA	50	1	490
94.73684211	33-2018A.csv	rec	KOŠARKA	50	1	479
93.60465116	34-2018B.csv	rec	KOŠARKA	50	1	682
78.72340426	35-2018A.csv	rec	KOŠARKA	50	1	631
85.14851485	36-2018B.csv	rec	KOŠARKA	50	1	549
97.14285714	37-2018A.csv	rec	KOŠARKA	50	1	622
98.97959184	40-2018A.csv	rec	KOŠARKA	50	1	570
88.03827751	4-2018B.csv	rec	KOŠARKA	50	1	755
80	42-2018A.csv	rec	KOŠARKA	50	1	449
89.52380952	43-2018A.csv	rec	KOŠARKA	50	1	646
93.33333333	45-2018A.csv	rec	KOŠARKA	50	1	652
96.7032967	48-2018A.csv	rec	KOŠARKA	50	1	496
71.42857143	50-2018A.csv	rec	KOŠARKA	50	1	543
84.06593407	53-2018B.csv	rec	KOŠARKA	50	1	611
89.73214286	54-2018B.csv	rec	KOŠARKA	50	1	572
94.30379747	55-2018B.csv	rec	KOŠARKA	50	1	649
96.42857143	56-2018A.csv	rec	KOŠARKA	50	1	468
93.08176101	56-2018B.csv	rec	KOŠARKA	50	1	746
83.80952381	59-2018A.csv	rec	KOŠARKA	50	1	652
95.79439252	61-2018B.csv	rec	KOŠARKA	50	1	518
95.13513514	6-2018B.csv	rec	KOŠARKA	50	1	676
95.65217391	63-2018A.csv	rec	KOŠARKA	50	1	619
95.06726457	65-2018B.csv	rec	KOŠARKA	50	1	490
87.17948718	67-2018B.csv	rec	KOŠARKA	50	1	648
92.89617486	68-2018B.csv	rec	KOŠARKA	50	1	862
94.87179487	7-2018A.csv	rec	KOŠARKA	50	1	632
98.75	73-2018A.csv	rec	KOŠARKA	50	1	495
96.77419355	8-2018A.csv	rec	KOŠARKA	50	1	597
94.36619718	99-2018B.csv	rec	KOŠARKA	50	1	686
88.0952381	02-2018A.csv	rec	KUKANJE	12	1	683
91.76470588	09-2018B.csv	rec	KUKANJE	12	1	747
84.48275862	10-2018A.csv	rec	KUKANJE	12	1	608
95.37037037	1-2018A.csv	rec	KUKANJE	12	1	540
95.97315436	12-2018B.csv	rec	KUKANJE	12	1	698
93.24324324	14-2018B.csv	rec	KUKANJE	12	1	515
93.15068493	18-2018B.csv	rec	KUKANJE	12	1	699
90.50632911	19-2018B.csv	rec	KUKANJE	12	1	837
94.73684211	20-2018A.csv	rec	KUKANJE	12	1	822
95.3125	21-2018A.csv	rec	KUKANJE	12	1	441
90.90909091	23-2018B.csv	rec	KUKANJE	12	1	557
88.88888889	26-2018A.csv	rec	KUKANJE	12	1	700
92.39130435	31-2018A.csv	rec	KUKANJE	12	1	577
90.90909091	33-2018A.csv	rec	KUKANJE	12	1	1053
93.56725146	34-2018B.csv	rec	KUKANJE	12	1	656
77.35849057	35-2018A.csv	rec	KUKANJE	12	1	809
84.73684211	36-2018B.csv	rec	KUKANJE	12	1	635
95.91836735	37-2018A.csv	rec	KUKANJE	12	1	1088
98.61111111	40-2018A.csv	rec	KUKANJE	12	1	477
88.20512821	4-2018B.csv	rec	KUKANJE	12	1	934
90.29126214	42-2018A.csv	rec	KUKANJE	12	1	550
89.47368421	43-2018A.csv	rec	KUKANJE	12	1	941
91.30434783	44-2018B.csv	rec	KUKANJE	12	1	824
93.44262295	45-2018A.csv	rec	KUKANJE	12	1	691
96.47058824	48-2018A.csv	rec	KUKANJE	12	1	573
75.30864198	50-2018A.csv	rec	KUKANJE	12	1	805
82.87671233	53-2018B.csv	rec	KUKANJE	12	1	727
91.13924051	54-2018B.csv	rec	KUKANJE	12	1	652
94.77124183	55-2018B.csv	rec	KUKANJE	12	1	984
96.55172414	56-2018A.csv	rec	KUKANJE	12	1	510
93.5483871	56-2018B.csv	rec	KUKANJE	12	1	868
87.69230769	59-2018A.csv	rec	KUKANJE	12	1	1023
95.81395349	61-2018B.csv	rec	KUKANJE	12	1	622
92.55319149	63-2018A.csv	rec	KUKANJE	12	1	841
95.42857143	65-2018B.csv	rec	KUKANJE	12	1	563
88.73873874	67-2018B.csv	rec	KUKANJE	12	1	1090
92.85714286	68-2018B.csv	rec	KUKANJE	12	1	652
93.87755102	7-2018A.csv	rec	KUKANJE	12	1	617
98.93617021	73-2018A.csv	rec	KUKANJE	12	1	689
94.66666667	8-2018A.csv	rec	KUKANJE	12	1	881
92.41706161	99-2018B.csv	rec	KUKANJE	12	1	885
90.29126214	02-2018A.csv	rec	KUPANJE	83	2	936
92.53731343	09-2018B.csv	rec	KUPANJE	83	2	676
85.29411765	10-2018A.csv	rec	KUPANJE	83	2	692
94.77124183	1-2018A.csv	rec	KUPANJE	83	2	1055
94	12-2018B.csv	rec	KUPANJE	83	2	699
89.33333333	14-2018B.csv	rec	KUPANJE	83	2	727
90	18-2018B.csv	rec	KUPANJE	83	2	525
82.89473684	19-2018B.csv	rec	KUPANJE	83	2	515
89.33333333	20-2018A.csv	rec	KUPANJE	83	2	628
94.89051095	21-2018A.csv	rec	KUPANJE	83	2	460
91.17647059	23-2018B.csv	rec	KUPANJE	83	2	467
90.4109589	26-2018A.csv	rec	KUPANJE	83	2	595
93.86792453	31-2018A.csv	rec	KUPANJE	83	2	491
93.125	33-2018A.csv	rec	KUPANJE	83	2	825
93.87755102	34-2018B.csv	rec	KUPANJE	83	2	602
84.81012658	35-2018A.csv	rec	KUPANJE	83	2	716
79.72972973	36-2018B.csv	rec	KUPANJE	83	2	973
97.2972973	37-2018A.csv	rec	KUPANJE	83	2	663
95.71428571	40-2018A.csv	rec	KUPANJE	83	2	609
89.13043478	4-2018B.csv	rec	KUPANJE	83	2	597
89.85507246	42-2018A.csv	rec	KUPANJE	83	2	522
90.90909091	43-2018A.csv	rec	KUPANJE	83	2	585
91.42857143	44-2018B.csv	rec	KUPANJE	83	2	664
89.17525773	45-2018A.csv	rec	KUPANJE	83	2	664
95.09803922	48-2018A.csv	rec	KUPANJE	83	2	578
77.91411043	50-2018A.csv	rec	KUPANJE	83	2	501
84.05797101	53-2018B.csv	rec	KUPANJE	83	2	606
90	54-2018B.csv	rec	KUPANJE	83	2	714
93.87755102	55-2018B.csv	rec	KUPANJE	83	2	582
95	56-2018A.csv	rec	KUPANJE	83	2	468
93.93939394	56-2018B.csv	rec	KUPANJE	83	2	602
86.48648649	59-2018A.csv	rec	KUPANJE	83	2	892
95.38461538	61-2018B.csv	rec	KUPANJE	83	2	592
94.66666667	6-2018B.csv	rec	KUPANJE	83	2	486
93.06358382	63-2018A.csv	rec	KUPANJE	83	2	719
95.41284404	65-2018B.csv	rec	KUPANJE	83	2	583
87.96296296	67-2018B.csv	rec	KUPANJE	83	2	1485
94.73684211	68-2018B.csv	rec	KUPANJE	83	2	677
92.34693878	7-2018A.csv	rec	KUPANJE	83	2	631
99.28057554	73-2018A.csv	rec	KUPANJE	83	2	443
94.70588235	8-2018A.csv	rec	KUPANJE	83	2	670
95.45454545	99-2018B.csv	rec	KUPANJE	83	2	653
86.66666667	02-2018A.csv	rec	KVADRAT	34	1	779
92.90780142	09-2018B.csv	rec	KVADRAT	34	1	667
86.25	10-2018A.csv	rec	KVADRAT	34	1	575
93.75	1-2018A.csv	rec	KVADRAT	34	1	794
96.20253165	12-2018B.csv	rec	KVADRAT	34	1	762
92.0212766	14-2018B.csv	rec	KVADRAT	34	1	585
94.11764706	18-2018B.csv	rec	KVADRAT	34	1	641
90.74074074	19-2018B.csv	rec	KVADRAT	34	1	542
92	20-2018A.csv	rec	KVADRAT	34	1	503
96.03960396	21-2018A.csv	rec	KVADRAT	34	1	570
90.24390244	23-2018B.csv	rec	KVADRAT	34	1	535
86.2745098	26-2018A.csv	rec	KVADRAT	34	1	554
93.63636364	31-2018A.csv	rec	KVADRAT	34	1	533
91.66666667	33-2018A.csv	rec	KVADRAT	34	1	775
94.48275862	34-2018B.csv	rec	KVADRAT	34	1	931
81.81818182	35-2018A.csv	rec	KVADRAT	34	1	768
83.79888268	36-2018B.csv	rec	KVADRAT	34	1	547
96.36363636	37-2018A.csv	rec	KVADRAT	34	1	796
98.55072464	40-2018A.csv	rec	KVADRAT	34	1	580
88.58695652	4-2018B.csv	rec	KVADRAT	34	1	653
85.10638298	42-2018A.csv	rec	KVADRAT	34	1	467
89.65517241	43-2018A.csv	rec	KVADRAT	34	1	752
91.44736842	44-2018B.csv	rec	KVADRAT	34	1	672
93.15068493	45-2018A.csv	rec	KVADRAT	34	1	1470
96.90721649	48-2018A.csv	rec	KVADRAT	34	1	627
84	53-2018B.csv	rec	KVADRAT	34	1	971
91.54929577	54-2018B.csv	rec	KVADRAT	34	1	701
94.54545455	55-2018B.csv	rec	KVADRAT	34	1	770
96.07843137	56-2018A.csv	rec	KVADRAT	34	1	525
92.94871795	56-2018B.csv	rec	KVADRAT	34	1	1059
86.73469388	59-2018A.csv	rec	KVADRAT	34	1	784
95.08196721	61-2018B.csv	rec	KVADRAT	34	1	525
95.08196721	6-2018B.csv	rec	KVADRAT	34	1	648
94.44444444	63-2018A.csv	rec	KVADRAT	34	1	666
95	65-2018B.csv	rec	KVADRAT	34	1	693
89.3258427	67-2018B.csv	rec	KVADRAT	34	1	720
92.46575342	68-2018B.csv	rec	KVADRAT	34	1	551
96.77419355	7-2018A.csv	rec	KVADRAT	34	1	523
100	73-2018A.csv	rec	KVADRAT	34	1	592
94.50549451	8-2018A.csv	rec	KVADRAT	34	1	902
92.19512195	99-2018B.csv	rec	KVADRAT	34	1	1102
87.23404255	02-2018A.csv	rec	LINIJA	26	1	558
79.54545455	10-2018A.csv	rec	LINIJA	26	1	798
95.81395349	12-2018B.csv	rec	LINIJA	26	1	688
91.97860963	14-2018B.csv	rec	LINIJA	26	1	855
93.47826087	18-2018B.csv	rec	LINIJA	26	1	758
90.25974026	19-2018B.csv	rec	LINIJA	26	1	524
90.625	23-2018B.csv	rec	LINIJA	26	1	515
91.76470588	31-2018A.csv	rec	LINIJA	26	1	530
94.44444444	33-2018A.csv	rec	LINIJA	26	1	536
92.61083744	34-2018B.csv	rec	LINIJA	26	1	701
80.95238095	35-2018A.csv	rec	LINIJA	26	1	561
83.23699422	36-2018B.csv	rec	LINIJA	26	1	725
96.77419355	37-2018A.csv	rec	LINIJA	26	1	1062
97.61904762	40-2018A.csv	rec	LINIJA	26	1	633
90.19607843	42-2018A.csv	rec	LINIJA	26	1	560
92	43-2018A.csv	rec	LINIJA	26	1	683
92.14659686	44-2018B.csv	rec	LINIJA	26	1	517
91.56626506	45-2018A.csv	rec	LINIJA	26	1	816
96.92307692	48-2018A.csv	rec	LINIJA	26	1	905
73.13432836	50-2018A.csv	rec	LINIJA	26	1	670
85.29411765	53-2018B.csv	rec	LINIJA	26	1	798
90.5	54-2018B.csv	rec	LINIJA	26	1	1110
94.44444444	55-2018B.csv	rec	LINIJA	26	1	1337
94.73684211	56-2018A.csv	rec	LINIJA	26	1	540
93.37349398	56-2018B.csv	rec	LINIJA	26	1	724
83.78378378	59-2018A.csv	rec	LINIJA	26	1	645
95.02762431	61-2018B.csv	rec	LINIJA	26	1	834
95.65217391	63-2018A.csv	rec	LINIJA	26	1	647
94.58128079	65-2018B.csv	rec	LINIJA	26	1	617
91.03448276	67-2018B.csv	rec	LINIJA	26	1	675
93.2735426	68-2018B.csv	rec	LINIJA	26	1	532
93.69369369	7-2018A.csv	rec	LINIJA	26	1	966
97.82608696	73-2018A.csv	rec	LINIJA	26	1	571
93.45794393	8-2018A.csv	rec	LINIJA	26	1	840
94.24460432	99-2018B.csv	rec	LINIJA	26	1	538
90.27777778	02-2018A.csv	rec	LISTA	51	2	801
91.66666667	09-2018B.csv	rec	LISTA	51	2	520
87.67772512	10-2018A.csv	rec	LISTA	51	2	632
94.59459459	1-2018A.csv	rec	LISTA	51	2	620
94.73684211	12-2018B.csv	rec	LISTA	51	2	672
85.36585366	14-2018B.csv	rec	LISTA	51	2	497
92.23300971	18-2018B.csv	rec	LISTA	51	2	388
86.66666667	19-2018B.csv	rec	LISTA	51	2	726
90.69767442	20-2018A.csv	rec	LISTA	51	2	1019
92.51336898	21-2018A.csv	rec	LISTA	51	2	383
93	23-2018B.csv	rec	LISTA	51	2	452
90.23255814	26-2018A.csv	rec	LISTA	51	2	638
93.89671362	31-2018A.csv	rec	LISTA	51	2	477
93.04812834	33-2018A.csv	rec	LISTA	51	2	531
95.45454545	34-2018B.csv	rec	LISTA	51	2	517
80	36-2018B.csv	rec	LISTA	51	2	1460
95.85798817	37-2018A.csv	rec	LISTA	51	2	599
98.23529412	40-2018A.csv	rec	LISTA	51	2	762
85.8974359	4-2018B.csv	rec	LISTA	51	2	651
90.09433962	42-2018A.csv	rec	LISTA	51	2	396
90.85365854	43-2018A.csv	rec	LISTA	51	2	1417
90.90909091	44-2018B.csv	rec	LISTA	51	2	744
88.39779006	45-2018A.csv	rec	LISTA	51	2	530
96.47887324	48-2018A.csv	rec	LISTA	51	2	1241
76.63551402	50-2018A.csv	rec	LISTA	51	2	567
80.76923077	53-2018B.csv	rec	LISTA	51	2	638
89.47368421	54-2018B.csv	rec	LISTA	51	2	606
88.46153846	55-2018B.csv	rec	LISTA	51	2	976
95.37572254	56-2018A.csv	rec	LISTA	51	2	515
90.36144578	56-2018B.csv	rec	LISTA	51	2	501
86.46616541	59-2018A.csv	rec	LISTA	51	2	1284
95.3125	61-2018B.csv	rec	LISTA	51	2	512
94.52054795	6-2018B.csv	rec	LISTA	51	2	565
92.56756757	63-2018A.csv	rec	LISTA	51	2	736
96	65-2018B.csv	rec	LISTA	51	2	464
89.02439024	67-2018B.csv	rec	LISTA	51	2	646
92.72727273	68-2018B.csv	rec	LISTA	51	2	538
92.81437126	7-2018A.csv	rec	LISTA	51	2	717
99.26470588	73-2018A.csv	rec	LISTA	51	2	455
94.59459459	8-2018A.csv	rec	LISTA	51	2	1184
95	99-2018B.csv	rec	LISTA	51	2	680
89.9543379	02-2018A.csv	rec	ME?AVA	75	2	591
91.89189189	09-2018B.csv	rec	ME?AVA	75	2	654
87.27272727	10-2018A.csv	rec	ME?AVA	75	2	844
94.47513812	1-2018A.csv	rec	ME?AVA	75	2	565
96.62921348	12-2018B.csv	rec	ME?AVA	75	2	773
89.18918919	14-2018B.csv	rec	ME?AVA	75	2	561
92.15686275	18-2018B.csv	rec	ME?AVA	75	2	986
83.75	19-2018B.csv	rec	ME?AVA	75	2	684
90.38461538	20-2018A.csv	rec	ME?AVA	75	2	706
92.55319149	21-2018A.csv	rec	ME?AVA	75	2	572
91.01123596	26-2018A.csv	rec	ME?AVA	75	2	791
92.56756757	33-2018A.csv	rec	ME?AVA	75	2	604
96.19047619	34-2018B.csv	rec	ME?AVA	75	2	873
85.23809524	35-2018A.csv	rec	ME?AVA	75	2	549
82.45614035	36-2018B.csv	rec	ME?AVA	75	2	735
96.40718563	37-2018A.csv	rec	ME?AVA	75	2	727
98.6013986	40-2018A.csv	rec	ME?AVA	75	2	563
89.28571429	4-2018B.csv	rec	ME?AVA	75	2	842
90.11627907	43-2018A.csv	rec	ME?AVA	75	2	646
92	44-2018B.csv	rec	ME?AVA	75	2	713
88.43537415	45-2018A.csv	rec	ME?AVA	75	2	801
95	48-2018A.csv	rec	ME?AVA	75	2	547
76.69902913	50-2018A.csv	rec	ME?AVA	75	2	725
83.07692308	53-2018B.csv	rec	ME?AVA	75	2	686
91.4893617	54-2018B.csv	rec	ME?AVA	75	2	653
88.0952381	55-2018B.csv	rec	ME?AVA	75	2	682
95.02487562	56-2018A.csv	rec	ME?AVA	75	2	564
89.74358974	56-2018B.csv	rec	ME?AVA	75	2	725
86.02941176	59-2018A.csv	rec	ME?AVA	75	2	688
95.4954955	61-2018B.csv	rec	ME?AVA	75	2	556
95.74468085	6-2018B.csv	rec	ME?AVA	75	2	576
91.46919431	63-2018A.csv	rec	ME?AVA	75	2	585
95.65217391	65-2018B.csv	rec	ME?AVA	75	2	596
95.12195122	67-2018B.csv	rec	ME?AVA	75	2	860
92.95774648	68-2018B.csv	rec	ME?AVA	75	2	583
93.57142857	7-2018A.csv	rec	ME?AVA	75	2	651
98.75776398	73-2018A.csv	rec	ME?AVA	75	2	792
94.44444444	8-2018A.csv	rec	ME?AVA	75	2	552
95.91836735	99-2018B.csv	rec	ME?AVA	75	2	759
90.32258065	02-2018A.csv	rec	MEHUR	89	2	664
93.18181818	09-2018B.csv	rec	MEHUR	89	2	604
87.09677419	10-2018A.csv	rec	MEHUR	89	2	779
94.44444444	1-2018A.csv	rec	MEHUR	89	2	693
95.58823529	12-2018B.csv	rec	MEHUR	89	2	663
88.88888889	14-2018B.csv	rec	MEHUR	89	2	589
92.79279279	18-2018B.csv	rec	MEHUR	89	2	510
77.08333333	19-2018B.csv	rec	MEHUR	89	2	551
89.88764045	20-2018A.csv	rec	MEHUR	89	2	655
92.34972678	21-2018A.csv	rec	MEHUR	89	2	677
93.97590361	23-2018B.csv	rec	MEHUR	89	2	534
90.44585987	26-2018A.csv	rec	MEHUR	89	2	581
94.66666667	31-2018A.csv	rec	MEHUR	89	2	752
93.60465116	33-2018A.csv	rec	MEHUR	89	2	457
93.93939394	34-2018B.csv	rec	MEHUR	89	2	569
85.81081081	35-2018A.csv	rec	MEHUR	89	2	829
81.48148148	36-2018B.csv	rec	MEHUR	89	2	765
96.38554217	37-2018A.csv	rec	MEHUR	89	2	727
98.13664596	40-2018A.csv	rec	MEHUR	89	2	618
87.77777778	4-2018B.csv	rec	MEHUR	89	2	737
89.65517241	42-2018A.csv	rec	MEHUR	89	2	565
90.60773481	43-2018A.csv	rec	MEHUR	89	2	873
92.85714286	44-2018B.csv	rec	MEHUR	89	2	591
90	45-2018A.csv	rec	MEHUR	89	2	763
78.23529412	50-2018A.csv	rec	MEHUR	89	2	653
84.52380952	53-2018B.csv	rec	MEHUR	89	2	717
90.10989011	54-2018B.csv	rec	MEHUR	89	2	646
92.85714286	55-2018B.csv	rec	MEHUR	89	2	590
96.6442953	56-2018A.csv	rec	MEHUR	89	2	448
90.38461538	56-2018B.csv	rec	MEHUR	89	2	978
86.39053254	59-2018A.csv	rec	MEHUR	89	2	727
93.33333333	61-2018B.csv	rec	MEHUR	89	2	724
96	6-2018B.csv	rec	MEHUR	89	2	469
92.30769231	63-2018A.csv	rec	MEHUR	89	2	976
94.28571429	65-2018B.csv	rec	MEHUR	89	2	539
89.61038961	67-2018B.csv	rec	MEHUR	89	2	834
96.15384615	68-2018B.csv	rec	MEHUR	89	2	616
93.23308271	7-2018A.csv	rec	MEHUR	89	2	721
98.94179894	73-2018A.csv	rec	MEHUR	89	2	463
94.70899471	8-2018A.csv	rec	MEHUR	89	2	642
96.19047619	99-2018B.csv	rec	MEHUR	89	2	795
89.67391304	02-2018A.csv	rec	META	55	2	458
92	09-2018B.csv	rec	META	55	2	496
86.59217877	10-2018A.csv	rec	META	55	2	568
94.73684211	1-2018A.csv	rec	META	55	2	584
94.33962264	12-2018B.csv	rec	META	55	2	1355
86.53846154	14-2018B.csv	rec	META	55	2	630
85.86956522	19-2018B.csv	rec	META	55	2	520
90	20-2018A.csv	rec	META	55	2	533
92.85714286	21-2018A.csv	rec	META	55	2	515
92.30769231	23-2018B.csv	rec	META	55	2	534
90.85714286	26-2018A.csv	rec	META	55	2	557
94.56521739	31-2018A.csv	rec	META	55	2	533
92.76315789	33-2018A.csv	rec	META	55	2	604
92	34-2018B.csv	rec	META	55	2	596
86.13138686	35-2018A.csv	rec	META	55	2	1466
80.95238095	36-2018B.csv	rec	META	55	2	677
96.9924812	37-2018A.csv	rec	META	55	2	733
95.79439252	40-2018A.csv	rec	META	55	2	526
89.09090909	4-2018B.csv	rec	META	55	2	622
89.44099379	42-2018A.csv	rec	META	55	2	487
89.85507246	43-2018A.csv	rec	META	55	2	815
91.30434783	44-2018B.csv	rec	META	55	2	931
89.70588235	45-2018A.csv	rec	META	55	2	783
96.4028777	48-2018A.csv	rec	META	55	2	547
77.57575758	50-2018A.csv	rec	META	55	2	509
81.48148148	53-2018B.csv	rec	META	55	2	563
90.90909091	54-2018B.csv	rec	META	55	2	715
91.30434783	55-2018B.csv	rec	META	55	2	650
94.76190476	56-2018A.csv	rec	META	55	2	476
93.10344828	56-2018B.csv	rec	META	55	2	462
84.97409326	59-2018A.csv	rec	META	55	2	469
95.16129032	61-2018B.csv	rec	META	55	2	501
96.03960396	6-2018B.csv	rec	META	55	2	477
92.3857868	63-2018A.csv	rec	META	55	2	508
94.73684211	65-2018B.csv	rec	META	55	2	725
90.2173913	67-2018B.csv	rec	META	55	2	685
92.66055046	68-2018B.csv	rec	META	55	2	638
92.7184466	7-2018A.csv	rec	META	55	2	574
98.72611465	73-2018A.csv	rec	META	55	2	461
95.3271028	8-2018A.csv	rec	META	55	2	1112
100	99-2018B.csv	rec	META	55	2	569
88.39285714	02-2018A.csv	rec	MRAZ	64	1	737
93.125	09-2018B.csv	rec	MRAZ	64	1	499
76.47058824	10-2018A.csv	rec	MRAZ	64	1	557
95.4954955	1-2018A.csv	rec	MRAZ	64	1	530
96.56862745	12-2018B.csv	rec	MRAZ	64	1	711
92.23744292	14-2018B.csv	rec	MRAZ	64	1	601
94.18604651	18-2018B.csv	rec	MRAZ	64	1	786
89.26829268	19-2018B.csv	rec	MRAZ	64	1	543
94.54545455	20-2018A.csv	rec	MRAZ	64	1	564
95.40229885	21-2018A.csv	rec	MRAZ	64	1	392
91.47982063	23-2018B.csv	rec	MRAZ	64	1	813
86	26-2018A.csv	rec	MRAZ	64	1	531
91.07142857	31-2018A.csv	rec	MRAZ	64	1	496
95.4887218	34-2018B.csv	rec	MRAZ	64	1	581
85.71428571	35-2018A.csv	rec	MRAZ	64	1	808
84.7715736	36-2018B.csv	rec	MRAZ	64	1	765
97.22222222	37-2018A.csv	rec	MRAZ	64	1	608
98.71794872	40-2018A.csv	rec	MRAZ	64	1	628
90.07092199	4-2018B.csv	rec	MRAZ	64	1	847
91.95402299	42-2018A.csv	rec	MRAZ	64	1	493
89.85507246	43-2018A.csv	rec	MRAZ	64	1	703
92.57425743	44-2018B.csv	rec	MRAZ	64	1	630
88.39285714	45-2018A.csv	rec	MRAZ	64	1	649
97.4025974	48-2018A.csv	rec	MRAZ	64	1	552
82.75862069	53-2018B.csv	rec	MRAZ	64	1	802
91.16022099	54-2018B.csv	rec	MRAZ	64	1	587
95.05494505	55-2018B.csv	rec	MRAZ	64	1	641
96.72131148	56-2018A.csv	rec	MRAZ	64	1	542
93.40659341	56-2018B.csv	rec	MRAZ	64	1	564
86	59-2018A.csv	rec	MRAZ	64	1	637
95.28795812	61-2018B.csv	rec	MRAZ	64	1	605
94.94382022	6-2018B.csv	rec	MRAZ	64	1	749
95.58823529	63-2018A.csv	rec	MRAZ	64	1	545
95.08928571	65-2018B.csv	rec	MRAZ	64	1	633
88.83928571	67-2018B.csv	rec	MRAZ	64	1	635
93.05555556	68-2018B.csv	rec	MRAZ	64	1	559
93.22033898	7-2018A.csv	rec	MRAZ	64	1	897
100	73-2018A.csv	rec	MRAZ	64	1	504
94.04761905	8-2018A.csv	rec	MRAZ	64	1	615
91.71270718	99-2018B.csv	rec	MRAZ	64	1	605
76.19047619	02-2018A.csv	rec	MUNJA	6	1	541
92.14659686	09-2018B.csv	rec	MUNJA	6	1	486
85.85858586	10-2018A.csv	rec	MUNJA	6	1	625
95.28301887	1-2018A.csv	rec	MUNJA	6	1	598
95.94594595	12-2018B.csv	rec	MUNJA	6	1	772
92.78846154	14-2018B.csv	rec	MUNJA	6	1	853
93.68421053	18-2018B.csv	rec	MUNJA	6	1	629
89.04109589	19-2018B.csv	rec	MUNJA	6	1	1492
91.66666667	20-2018A.csv	rec	MUNJA	6	1	460
94.82758621	21-2018A.csv	rec	MUNJA	6	1	543
90.68322981	23-2018B.csv	rec	MUNJA	6	1	741
83.72093023	26-2018A.csv	rec	MUNJA	6	1	607
92.13483146	31-2018A.csv	rec	MUNJA	6	1	592
91.07142857	33-2018A.csv	rec	MUNJA	6	1	984
93.71428571	34-2018B.csv	rec	MUNJA	6	1	897
79.66101695	35-2018A.csv	rec	MUNJA	6	1	667
83.01886792	36-2018B.csv	rec	MUNJA	6	1	1054
96.96969697	37-2018A.csv	rec	MUNJA	6	1	859
99.08256881	40-2018A.csv	rec	MUNJA	6	1	561
89.62962963	4-2018B.csv	rec	MUNJA	6	1	754
90.66666667	42-2018A.csv	rec	MUNJA	6	1	503
91.30434783	43-2018A.csv	rec	MUNJA	6	1	777
91.25	44-2018B.csv	rec	MUNJA	6	1	745
92.10526316	45-2018A.csv	rec	MUNJA	6	1	674
96.875	48-2018A.csv	rec	MUNJA	6	1	602
75	50-2018A.csv	rec	MUNJA	6	1	631
82.63888889	53-2018B.csv	rec	MUNJA	6	1	648
91.35135135	54-2018B.csv	rec	MUNJA	6	1	675
94.52054795	55-2018B.csv	rec	MUNJA	6	1	537
97	56-2018A.csv	rec	MUNJA	6	1	464
93.6416185	56-2018B.csv	rec	MUNJA	6	1	573
93.10344828	59-2018A.csv	rec	MUNJA	6	1	680
95.58823529	61-2018B.csv	rec	MUNJA	6	1	752
95.3125	6-2018B.csv	rec	MUNJA	6	1	1103
97.2972973	63-2018A.csv	rec	MUNJA	6	1	875
94.85981308	65-2018B.csv	rec	MUNJA	6	1	544
87.5	67-2018B.csv	rec	MUNJA	6	1	605
93.37349398	68-2018B.csv	rec	MUNJA	6	1	540
93.57798165	7-2018A.csv	rec	MUNJA	6	1	527
100	73-2018A.csv	rec	MUNJA	6	1	561
97.95918367	8-2018A.csv	rec	MUNJA	6	1	762
90.74074074	99-2018B.csv	rec	MUNJA	6	1	725
89.30481283	02-2018A.csv	rec	NAPAD	9	2	560
93.33333333	09-2018B.csv	rec	NAPAD	9	2	518
85.40145985	10-2018A.csv	rec	NAPAD	9	2	471
94.70588235	1-2018A.csv	rec	NAPAD	9	2	560
96.66666667	12-2018B.csv	rec	NAPAD	9	2	578
91.42857143	14-2018B.csv	rec	NAPAD	9	2	568
90.69767442	18-2018B.csv	rec	NAPAD	9	2	547
82.66666667	19-2018B.csv	rec	NAPAD	9	2	615
89.94413408	20-2018A.csv	rec	NAPAD	9	2	465
92.89340102	21-2018A.csv	rec	NAPAD	9	2	531
92.85714286	23-2018B.csv	rec	NAPAD	9	2	438
90.67357513	26-2018A.csv	rec	NAPAD	9	2	849
94.31818182	31-2018A.csv	rec	NAPAD	9	2	421
93.56725146	33-2018A.csv	rec	NAPAD	9	2	509
92.45283019	34-2018B.csv	rec	NAPAD	9	2	508
85.16746411	35-2018A.csv	rec	NAPAD	9	2	640
83.33333333	36-2018B.csv	rec	NAPAD	9	2	442
95.71428571	37-2018A.csv	rec	NAPAD	9	2	871
96.75675676	40-2018A.csv	rec	NAPAD	9	2	599
88.78504673	4-2018B.csv	rec	NAPAD	9	2	566
90.1734104	43-2018A.csv	rec	NAPAD	9	2	535
92.30769231	44-2018B.csv	rec	NAPAD	9	2	539
88.26815642	45-2018A.csv	rec	NAPAD	9	2	674
96.02649007	48-2018A.csv	rec	NAPAD	9	2	488
77.17391304	50-2018A.csv	rec	NAPAD	9	2	572
83.58208955	53-2018B.csv	rec	NAPAD	9	2	524
89.47368421	54-2018B.csv	rec	NAPAD	9	2	448
93.75	55-2018B.csv	rec	NAPAD	9	2	502
94.57013575	56-2018A.csv	rec	NAPAD	9	2	475
91.26213592	56-2018B.csv	rec	NAPAD	9	2	460
86.23188406	59-2018A.csv	rec	NAPAD	9	2	1192
95.45454545	61-2018B.csv	rec	NAPAD	9	2	1010
96.2962963	6-2018B.csv	rec	NAPAD	9	2	592
93.47826087	63-2018A.csv	rec	NAPAD	9	2	607
94.11764706	65-2018B.csv	rec	NAPAD	9	2	460
89.88764045	67-2018B.csv	rec	NAPAD	9	2	555
92.77108434	68-2018B.csv	rec	NAPAD	9	2	544
92.89940828	7-2018A.csv	rec	NAPAD	9	2	1078
98.70967742	73-2018A.csv	rec	NAPAD	9	2	445
94.52054795	8-2018A.csv	rec	NAPAD	9	2	565
95.4954955	99-2018B.csv	rec	NAPAD	9	2	591
89.20454545	02-2018A.csv	rec	NASILJE	39	2	586
93.18181818	09-2018B.csv	rec	NASILJE	39	2	565
86.95652174	10-2018A.csv	rec	NASILJE	39	2	634
94.63087248	1-2018A.csv	rec	NASILJE	39	2	821
96.90721649	12-2018B.csv	rec	NASILJE	39	2	633
91.35802469	18-2018B.csv	rec	NASILJE	39	2	589
81.25	19-2018B.csv	rec	NASILJE	39	2	649
90	20-2018A.csv	rec	NASILJE	39	2	638
92.5	23-2018B.csv	rec	NASILJE	39	2	495
90.32258065	26-2018A.csv	rec	NASILJE	39	2	853
94.9044586	31-2018A.csv	rec	NASILJE	39	2	453
92.36111111	33-2018A.csv	rec	NASILJE	39	2	571
95.12195122	34-2018B.csv	rec	NASILJE	39	2	638
85	35-2018A.csv	rec	NASILJE	39	2	646
80.76923077	36-2018B.csv	rec	NASILJE	39	2	639
95.52238806	37-2018A.csv	rec	NASILJE	39	2	597
96.72131148	40-2018A.csv	rec	NASILJE	39	2	569
89.36170213	4-2018B.csv	rec	NASILJE	39	2	761
89.3081761	42-2018A.csv	rec	NASILJE	39	2	446
89.55223881	43-2018A.csv	rec	NASILJE	39	2	998
91.30434783	44-2018B.csv	rec	NASILJE	39	2	515
89.0625	45-2018A.csv	rec	NASILJE	39	2	632
96.2406015	48-2018A.csv	rec	NASILJE	39	2	495
76.41509434	50-2018A.csv	rec	NASILJE	39	2	623
85.22727273	53-2018B.csv	rec	NASILJE	39	2	729
88.57142857	54-2018B.csv	rec	NASILJE	39	2	721
93.57798165	55-2018B.csv	rec	NASILJE	39	2	906
95.78313253	56-2018A.csv	rec	NASILJE	39	2	484
90.90909091	56-2018B.csv	rec	NASILJE	39	2	650
85.31073446	59-2018A.csv	rec	NASILJE	39	2	916
94.91525424	61-2018B.csv	rec	NASILJE	39	2	624
96.77419355	6-2018B.csv	rec	NASILJE	39	2	710
95.83333333	65-2018B.csv	rec	NASILJE	39	2	557
93.33333333	67-2018B.csv	rec	NASILJE	39	2	586
92.22222222	7-2018A.csv	rec	NASILJE	39	2	895
98.83040936	73-2018A.csv	rec	NASILJE	39	2	449
94.82758621	8-2018A.csv	rec	NASILJE	39	2	776
96.2962963	99-2018B.csv	rec	NASILJE	39	2	681
90	02-2018A.csv	rec	NASLAGA	13	2	908
94.91525424	09-2018B.csv	rec	NASLAGA	13	2	901
86.8852459	10-2018A.csv	rec	NASLAGA	13	2	1089
94.73684211	1-2018A.csv	rec	NASLAGA	13	2	736
95	12-2018B.csv	rec	NASLAGA	13	2	857
90.90909091	14-2018B.csv	rec	NASLAGA	13	2	568
86.36363636	18-2018B.csv	rec	NASLAGA	13	2	687
76.19047619	19-2018B.csv	rec	NASLAGA	13	2	510
89.67741935	20-2018A.csv	rec	NASLAGA	13	2	761
92.70833333	21-2018A.csv	rec	NASLAGA	13	2	534
91.80327869	23-2018B.csv	rec	NASLAGA	13	2	533
94.15204678	31-2018A.csv	rec	NASLAGA	13	2	557
92.15686275	33-2018A.csv	rec	NASLAGA	13	2	595
95.69892473	34-2018B.csv	rec	NASLAGA	13	2	804
84.61538462	35-2018A.csv	rec	NASLAGA	13	2	1275
81.39534884	36-2018B.csv	rec	NASLAGA	13	2	1286
96.2962963	37-2018A.csv	rec	NASLAGA	13	2	527
96.37305699	40-2018A.csv	rec	NASLAGA	13	2	715
87.91208791	4-2018B.csv	rec	NASLAGA	13	2	696
89.14027149	42-2018A.csv	rec	NASLAGA	13	2	506
90.68322981	43-2018A.csv	rec	NASLAGA	13	2	872
92.30769231	44-2018B.csv	rec	NASLAGA	13	2	875
89.70588235	45-2018A.csv	rec	NASLAGA	13	2	583
95.50561798	48-2018A.csv	rec	NASLAGA	13	2	594
76.19047619	50-2018A.csv	rec	NASLAGA	13	2	796
91.17647059	54-2018B.csv	rec	NASLAGA	13	2	560
92.5	55-2018B.csv	rec	NASLAGA	13	2	677
94.97487437	56-2018A.csv	rec	NASLAGA	13	2	667
89.04109589	56-2018B.csv	rec	NASLAGA	13	2	972
86.22754491	59-2018A.csv	rec	NASLAGA	13	2	893
93.75	61-2018B.csv	rec	NASLAGA	13	2	941
96.33027523	6-2018B.csv	rec	NASLAGA	13	2	730
93.03797468	63-2018A.csv	rec	NASLAGA	13	2	689
93.93939394	65-2018B.csv	rec	NASLAGA	13	2	632
89.39393939	67-2018B.csv	rec	NASLAGA	13	2	976
92.5	68-2018B.csv	rec	NASLAGA	13	2	639
93.05555556	7-2018A.csv	rec	NASLAGA	13	2	619
98.66666667	73-2018A.csv	rec	NASLAGA	13	2	557
94.93087558	8-2018A.csv	rec	NASLAGA	13	2	1208
95.83333333	99-2018B.csv	rec	NASLAGA	13	2	778
89.55223881	02-2018A.csv	rec	NATPIS	71	2	584
94.28571429	09-2018B.csv	rec	NATPIS	71	2	485
86.20689655	10-2018A.csv	rec	NATPIS	71	2	780
94.70899471	1-2018A.csv	rec	NATPIS	71	2	864
93.18181818	12-2018B.csv	rec	NATPIS	71	2	775
84.44444444	14-2018B.csv	rec	NATPIS	71	2	578
90.90909091	18-2018B.csv	rec	NATPIS	71	2	594
72.97297297	19-2018B.csv	rec	NATPIS	71	2	544
89.3081761	20-2018A.csv	rec	NATPIS	71	2	890
93.75	21-2018A.csv	rec	NATPIS	71	2	510
93.02325581	23-2018B.csv	rec	NATPIS	71	2	469
89.86486486	26-2018A.csv	rec	NATPIS	71	2	558
94.09090909	31-2018A.csv	rec	NATPIS	71	2	433
92.09302326	33-2018A.csv	rec	NATPIS	71	2	618
94.54545455	34-2018B.csv	rec	NATPIS	71	2	677
84.79532164	35-2018A.csv	rec	NATPIS	71	2	939
81.25	36-2018B.csv	rec	NATPIS	71	2	745
96.81528662	37-2018A.csv	rec	NATPIS	71	2	836
98.14814815	40-2018A.csv	rec	NATPIS	71	2	608
90.47619048	4-2018B.csv	rec	NATPIS	71	2	777
89.20863309	42-2018A.csv	rec	NATPIS	71	2	582
90.19607843	43-2018A.csv	rec	NATPIS	71	2	727
91.30434783	44-2018B.csv	rec	NATPIS	71	2	796
89.92805755	45-2018A.csv	rec	NATPIS	71	2	490
95.75757576	48-2018A.csv	rec	NATPIS	71	2	437
85.13513514	53-2018B.csv	rec	NATPIS	71	2	876
84	54-2018B.csv	rec	NATPIS	71	2	794
95.67901235	56-2018A.csv	rec	NATPIS	71	2	462
89.33333333	56-2018B.csv	rec	NATPIS	71	2	644
85.24590164	59-2018A.csv	rec	NATPIS	71	2	823
94.82758621	61-2018B.csv	rec	NATPIS	71	2	602
95.6043956	6-2018B.csv	rec	NATPIS	71	2	494
92.30769231	63-2018A.csv	rec	NATPIS	71	2	751
94.28571429	65-2018B.csv	rec	NATPIS	71	2	505
94.28571429	67-2018B.csv	rec	NATPIS	71	2	1069
91.66666667	68-2018B.csv	rec	NATPIS	71	2	609
92.69662921	7-2018A.csv	rec	NATPIS	71	2	709
98.86363636	73-2018A.csv	rec	NATPIS	71	2	563
93.98496241	8-2018A.csv	rec	NATPIS	71	2	940
95.77464789	99-2018B.csv	rec	NATPIS	71	2	701
92.34234234	09-2018B.csv	rec	NERED	54	1	621
76.66666667	10-2018A.csv	rec	NERED	54	1	577
94.87179487	1-2018A.csv	rec	NERED	54	1	643
96.2962963	12-2018B.csv	rec	NERED	54	1	637
92.99363057	14-2018B.csv	rec	NERED	54	1	889
94.73684211	18-2018B.csv	rec	NERED	54	1	557
88.8372093	19-2018B.csv	rec	NERED	54	1	495
94.52054795	21-2018A.csv	rec	NERED	54	1	488
90.95477387	23-2018B.csv	rec	NERED	54	1	558
89.13043478	26-2018A.csv	rec	NERED	54	1	970
93.57798165	31-2018A.csv	rec	NERED	54	1	590
90.47619048	33-2018A.csv	rec	NERED	54	1	595
80.95238095	35-2018A.csv	rec	NERED	54	1	771
84.81675393	36-2018B.csv	rec	NERED	54	1	531
100	37-2018A.csv	rec	NERED	54	1	697
97.72727273	40-2018A.csv	rec	NERED	54	1	800
89.47368421	4-2018B.csv	rec	NERED	54	1	1073
81.57894737	42-2018A.csv	rec	NERED	54	1	397
90.90909091	43-2018A.csv	rec	NERED	54	1	875
91.11111111	44-2018B.csv	rec	NERED	54	1	685
94.73684211	45-2018A.csv	rec	NERED	54	1	502
97.6744186	48-2018A.csv	rec	NERED	54	1	842
75.75757576	50-2018A.csv	rec	NERED	54	1	660
83.97790055	53-2018B.csv	rec	NERED	54	1	707
90.82125604	54-2018B.csv	rec	NERED	54	1	564
95.28795812	55-2018B.csv	rec	NERED	54	1	809
96.61016949	56-2018A.csv	rec	NERED	54	1	557
93.33333333	56-2018B.csv	rec	NERED	54	1	572
88.33333333	59-2018A.csv	rec	NERED	54	1	497
95.16129032	61-2018B.csv	rec	NERED	54	1	577
96.66666667	6-2018B.csv	rec	NERED	54	1	646
94.5	65-2018B.csv	rec	NERED	54	1	572
92.68292683	7-2018A.csv	rec	NERED	54	1	575
98.63013699	73-2018A.csv	rec	NERED	54	1	570
96.875	8-2018A.csv	rec	NERED	54	1	644
91.66666667	99-2018B.csv	rec	NERED	54	1	658
90.85365854	02-2018A.csv	rec	OBLOG	73	2	707
93.33333333	09-2018B.csv	rec	OBLOG	73	2	468
87.5	10-2018A.csv	rec	OBLOG	73	2	1048
94.57013575	1-2018A.csv	rec	OBLOG	73	2	606
95.71428571	12-2018B.csv	rec	OBLOG	73	2	668
88.88888889	14-2018B.csv	rec	OBLOG	73	2	811
90.90909091	18-2018B.csv	rec	OBLOG	73	2	1120
90.45226131	20-2018A.csv	rec	OBLOG	73	2	479
93.51851852	21-2018A.csv	rec	OBLOG	73	2	834
92.85714286	23-2018B.csv	rec	OBLOG	73	2	684
90.42553191	26-2018A.csv	rec	OBLOG	73	2	974
95	31-2018A.csv	rec	OBLOG	73	2	576
92.34234234	33-2018A.csv	rec	OBLOG	73	2	929
95	34-2018B.csv	rec	OBLOG	73	2	562
95.5	37-2018A.csv	rec	OBLOG	73	2	884
88.63636364	4-2018B.csv	rec	OBLOG	73	2	1123
89.61038961	42-2018A.csv	rec	OBLOG	73	2	526
89.92805755	43-2018A.csv	rec	OBLOG	73	2	565
93.33333333	44-2018B.csv	rec	OBLOG	73	2	663
96.42857143	48-2018A.csv	rec	OBLOG	73	2	738
84.93150685	53-2018B.csv	rec	OBLOG	73	2	750
89.88764045	54-2018B.csv	rec	OBLOG	73	2	568
90.90909091	55-2018B.csv	rec	OBLOG	73	2	724
96.59863946	56-2018A.csv	rec	OBLOG	73	2	917
90.32258065	56-2018B.csv	rec	OBLOG	73	2	597
85.05154639	59-2018A.csv	rec	OBLOG	73	2	664
95.74468085	61-2018B.csv	rec	OBLOG	73	2	926
95.50561798	6-2018B.csv	rec	OBLOG	73	2	517
93.37349398	63-2018A.csv	rec	OBLOG	73	2	640
93.75	65-2018B.csv	rec	OBLOG	73	2	660
89.87341772	67-2018B.csv	rec	OBLOG	73	2	1005
94.11764706	68-2018B.csv	rec	OBLOG	73	2	813
92.10526316	7-2018A.csv	rec	OBLOG	73	2	693
99.27007299	73-2018A.csv	rec	OBLOG	73	2	483
94.40559441	8-2018A.csv	rec	OBLOG	73	2	778
96	99-2018B.csv	rec	OBLOG	73	2	796
87.85046729	02-2018A.csv	rec	OSTRVO	80	1	648
93.33333333	09-2018B.csv	rec	OSTRVO	80	1	556
87.20930233	10-2018A.csv	rec	OSTRVO	80	1	535
95.83333333	1-2018A.csv	rec	OSTRVO	80	1	554
95.86206897	12-2018B.csv	rec	OSTRVO	80	1	599
93.19727891	14-2018B.csv	rec	OSTRVO	80	1	472
94.28571429	18-2018B.csv	rec	OSTRVO	80	1	597
90.44585987	19-2018B.csv	rec	OSTRVO	80	1	534
88.99082569	20-2018A.csv	rec	OSTRVO	80	1	663
90.625	21-2018A.csv	rec	OSTRVO	80	1	489
92.48120301	23-2018B.csv	rec	OSTRVO	80	1	496
92.85714286	31-2018A.csv	rec	OSTRVO	80	1	447
91.11111111	33-2018A.csv	rec	OSTRVO	80	1	766
93.19371728	34-2018B.csv	rec	OSTRVO	80	1	492
78.57142857	35-2018A.csv	rec	OSTRVO	80	1	740
84.16289593	36-2018B.csv	rec	OSTRVO	80	1	1121
96.73913043	37-2018A.csv	rec	OSTRVO	80	1	642
98.87640449	40-2018A.csv	rec	OSTRVO	80	1	331
88.23529412	4-2018B.csv	rec	OSTRVO	80	1	623
86.2745098	42-2018A.csv	rec	OSTRVO	80	1	452
92.10526316	43-2018A.csv	rec	OSTRVO	80	1	545
92.52336449	44-2018B.csv	rec	OSTRVO	80	1	447
91.89189189	45-2018A.csv	rec	OSTRVO	80	1	547
96.66666667	48-2018A.csv	rec	OSTRVO	80	1	602
74.07407407	50-2018A.csv	rec	OSTRVO	80	1	662
82.70676692	53-2018B.csv	rec	OSTRVO	80	1	666
92.10526316	54-2018B.csv	rec	OSTRVO	80	1	542
94.63087248	55-2018B.csv	rec	OSTRVO	80	1	629
96.34146341	56-2018A.csv	rec	OSTRVO	80	1	454
93.28358209	56-2018B.csv	rec	OSTRVO	80	1	459
86.04651163	59-2018A.csv	rec	OSTRVO	80	1	562
95.89041096	61-2018B.csv	rec	OSTRVO	80	1	540
96.5034965	6-2018B.csv	rec	OSTRVO	80	1	527
97.61904762	63-2018A.csv	rec	OSTRVO	80	1	572
94.88372093	65-2018B.csv	rec	OSTRVO	80	1	517
88.53211009	67-2018B.csv	rec	OSTRVO	80	1	738
93.33333333	68-2018B.csv	rec	OSTRVO	80	1	507
93.51851852	7-2018A.csv	rec	OSTRVO	80	1	716
100	73-2018A.csv	rec	OSTRVO	80	1	444
94.11764706	8-2018A.csv	rec	OSTRVO	80	1	491
91.47727273	99-2018B.csv	rec	OSTRVO	80	1	616
89.47368421	02-2018A.csv	rec	OTISAK	33	2	687
92.30769231	09-2018B.csv	rec	OTISAK	33	2	912
86.11111111	10-2018A.csv	rec	OTISAK	33	2	658
95.68345324	1-2018A.csv	rec	OTISAK	33	2	529
95.08196721	12-2018B.csv	rec	OTISAK	33	2	629
87.5	14-2018B.csv	rec	OTISAK	33	2	654
91.11111111	18-2018B.csv	rec	OTISAK	33	2	592
83.95061728	19-2018B.csv	rec	OTISAK	33	2	532
89.92805755	20-2018A.csv	rec	OTISAK	33	2	477
92.96482412	21-2018A.csv	rec	OTISAK	33	2	780
93.90243902	23-2018B.csv	rec	OTISAK	33	2	525
90.3030303	26-2018A.csv	rec	OTISAK	33	2	1386
94.28571429	31-2018A.csv	rec	OTISAK	33	2	420
92.19512195	33-2018A.csv	rec	OTISAK	33	2	532
96.11650485	34-2018B.csv	rec	OTISAK	33	2	539
84.95145631	35-2018A.csv	rec	OTISAK	33	2	982
80	36-2018B.csv	rec	OTISAK	33	2	556
96.25668449	37-2018A.csv	rec	OTISAK	33	2	621
96.27659574	40-2018A.csv	rec	OTISAK	33	2	961
88.28828829	4-2018B.csv	rec	OTISAK	33	2	719
89.6039604	42-2018A.csv	rec	OTISAK	33	2	516
90.47619048	44-2018B.csv	rec	OTISAK	33	2	469
88.60759494	45-2018A.csv	rec	OTISAK	33	2	671
95.70552147	48-2018A.csv	rec	OTISAK	33	2	623
77.04918033	50-2018A.csv	rec	OTISAK	33	2	668
85.10638298	53-2018B.csv	rec	OTISAK	33	2	770
90.32258065	54-2018B.csv	rec	OTISAK	33	2	906
89.13043478	55-2018B.csv	rec	OTISAK	33	2	570
94.61883408	56-2018A.csv	rec	OTISAK	33	2	707
91.74311927	56-2018B.csv	rec	OTISAK	33	2	564
87.09677419	59-2018A.csv	rec	OTISAK	33	2	587
95	61-2018B.csv	rec	OTISAK	33	2	538
95.95959596	6-2018B.csv	rec	OTISAK	33	2	591
92.43243243	63-2018A.csv	rec	OTISAK	33	2	550
95.28301887	65-2018B.csv	rec	OTISAK	33	2	581
91.4893617	67-2018B.csv	rec	OTISAK	33	2	542
93.87755102	68-2018B.csv	rec	OTISAK	33	2	646
92	7-2018A.csv	rec	OTISAK	33	2	571
98.75	73-2018A.csv	rec	OTISAK	33	2	603
94.47513812	8-2018A.csv	rec	OTISAK	33	2	688
96.25	99-2018B.csv	rec	OTISAK	33	2	606
89.90825688	02-2018A.csv	rec	OZNAKA	49	2	744
95.3125	09-2018B.csv	rec	OZNAKA	49	2	516
86.07594937	10-2018A.csv	rec	OZNAKA	49	2	638
94.31279621	1-2018A.csv	rec	OZNAKA	49	2	654
91.66666667	12-2018B.csv	rec	OZNAKA	49	2	647
89.47368421	14-2018B.csv	rec	OZNAKA	49	2	711
92.52336449	18-2018B.csv	rec	OZNAKA	49	2	955
78.94736842	19-2018B.csv	rec	OZNAKA	49	2	531
90.5	20-2018A.csv	rec	OZNAKA	49	2	418
95.1048951	21-2018A.csv	rec	OZNAKA	49	2	464
90.32258065	23-2018B.csv	rec	OZNAKA	49	2	638
90.69767442	26-2018A.csv	rec	OZNAKA	49	2	763
94.59459459	31-2018A.csv	rec	OZNAKA	49	2	500
92.61744966	33-2018A.csv	rec	OZNAKA	49	2	725
92.85714286	34-2018B.csv	rec	OZNAKA	49	2	667
85.58558559	35-2018A.csv	rec	OZNAKA	49	2	745
80.32786885	36-2018B.csv	rec	OZNAKA	49	2	804
97.33333333	37-2018A.csv	rec	OZNAKA	49	2	980
98.18181818	40-2018A.csv	rec	OZNAKA	49	2	691
88.99082569	4-2018B.csv	rec	OZNAKA	49	2	556
88.43930636	42-2018A.csv	rec	OZNAKA	49	2	494
90.90909091	43-2018A.csv	rec	OZNAKA	49	2	587
91.39784946	44-2018B.csv	rec	OZNAKA	49	2	531
89.0052356	45-2018A.csv	rec	OZNAKA	49	2	595
96.32352941	48-2018A.csv	rec	OZNAKA	49	2	594
76.71232877	50-2018A.csv	rec	OZNAKA	49	2	541
84.21052632	53-2018B.csv	rec	OZNAKA	49	2	600
89.18918919	54-2018B.csv	rec	OZNAKA	49	2	544
93.81443299	55-2018B.csv	rec	OZNAKA	49	2	936
96.42857143	56-2018A.csv	rec	OZNAKA	49	2	485
91.08910891	56-2018B.csv	rec	OZNAKA	49	2	610
87.42138365	59-2018A.csv	rec	OZNAKA	49	2	550
95.58823529	61-2018B.csv	rec	OZNAKA	49	2	521
95.12195122	6-2018B.csv	rec	OZNAKA	49	2	661
91.42857143	63-2018A.csv	rec	OZNAKA	49	2	594
94.20289855	65-2018B.csv	rec	OZNAKA	49	2	487
90.32258065	67-2018B.csv	rec	OZNAKA	49	2	876
91.80327869	68-2018B.csv	rec	OZNAKA	49	2	588
92.42424242	7-2018A.csv	rec	OZNAKA	49	2	598
97.58454106	73-2018A.csv	rec	OZNAKA	49	2	585
95.215311	8-2018A.csv	rec	OZNAKA	49	2	772
96.1038961	99-2018B.csv	rec	OZNAKA	49	2	573
90.47619048	02-2018A.csv	rec	PADANJE	53	2	565
91.42857143	09-2018B.csv	rec	PADANJE	53	2	625
87.11340206	10-2018A.csv	rec	PADANJE	53	2	590
94.44444444	1-2018A.csv	rec	PADANJE	53	2	710
93.33333333	12-2018B.csv	rec	PADANJE	53	2	598
91.26213592	14-2018B.csv	rec	PADANJE	53	2	588
92.72727273	18-2018B.csv	rec	PADANJE	53	2	770
81.42857143	19-2018B.csv	rec	PADANJE	53	2	637
89.7810219	20-2018A.csv	rec	PADANJE	53	2	591
93.16770186	21-2018A.csv	rec	PADANJE	53	2	508
91.66666667	23-2018B.csv	rec	PADANJE	53	2	541
90.8045977	26-2018A.csv	rec	PADANJE	53	2	811
94.32624113	31-2018A.csv	rec	PADANJE	53	2	473
93.33333333	33-2018A.csv	rec	PADANJE	53	2	578
94.44444444	34-2018B.csv	rec	PADANJE	53	2	631
85.35353535	35-2018A.csv	rec	PADANJE	53	2	968
84.25925926	36-2018B.csv	rec	PADANJE	53	2	846
96.75324675	37-2018A.csv	rec	PADANJE	53	2	963
98.10126582	40-2018A.csv	rec	PADANJE	53	2	699
88.46153846	4-2018B.csv	rec	PADANJE	53	2	761
89.5	42-2018A.csv	rec	PADANJE	53	2	643
90.52631579	43-2018A.csv	rec	PADANJE	53	2	808
90.90909091	44-2018B.csv	rec	PADANJE	53	2	639
89.4977169	45-2018A.csv	rec	PADANJE	53	2	832
95.07389163	48-2018A.csv	rec	PADANJE	53	2	689
77.14285714	50-2018A.csv	rec	PADANJE	53	2	764
83.5443038	53-2018B.csv	rec	PADANJE	53	2	692
91.66666667	54-2018B.csv	rec	PADANJE	53	2	647
93.33333333	55-2018B.csv	rec	PADANJE	53	2	710
96.07843137	56-2018A.csv	rec	PADANJE	53	2	517
88.88888889	56-2018B.csv	rec	PADANJE	53	2	574
86.98630137	59-2018A.csv	rec	PADANJE	53	2	1122
95.40229885	61-2018B.csv	rec	PADANJE	53	2	830
96.42857143	6-2018B.csv	rec	PADANJE	53	2	653
94.02985075	63-2018A.csv	rec	PADANJE	53	2	719
96.15384615	65-2018B.csv	rec	PADANJE	53	2	534
88.28828829	67-2018B.csv	rec	PADANJE	53	2	763
95.83333333	68-2018B.csv	rec	PADANJE	53	2	563
92.20779221	7-2018A.csv	rec	PADANJE	53	2	719
98.89502762	73-2018A.csv	rec	PADANJE	53	2	488
94.85714286	8-2018A.csv	rec	PADANJE	53	2	853
96.55172414	99-2018B.csv	rec	PADANJE	53	2	627
89.50276243	02-2018A.csv	rec	PANIKA	1	2	497
94.23076923	09-2018B.csv	rec	PANIKA	1	2	508
85.45454545	10-2018A.csv	rec	PANIKA	1	2	948
94.5	1-2018A.csv	rec	PANIKA	1	2	567
96.38554217	12-2018B.csv	rec	PANIKA	1	2	649
91.39784946	14-2018B.csv	rec	PANIKA	1	2	676
92.45283019	18-2018B.csv	rec	PANIKA	1	2	595
79.31034483	19-2018B.csv	rec	PANIKA	1	2	547
89.18918919	20-2018A.csv	rec	PANIKA	1	2	598
93.06930693	21-2018A.csv	rec	PANIKA	1	2	862
90.625	23-2018B.csv	rec	PANIKA	1	2	628
89.90384615	26-2018A.csv	rec	PANIKA	1	2	832
94.04761905	31-2018A.csv	rec	PANIKA	1	2	524
92.08633094	33-2018A.csv	rec	PANIKA	1	2	540
95.55555556	34-2018B.csv	rec	PANIKA	1	2	856
86.09625668	35-2018A.csv	rec	PANIKA	1	2	1049
80.55555556	36-2018B.csv	rec	PANIKA	1	2	492
97.24137931	37-2018A.csv	rec	PANIKA	1	2	592
98.63945578	40-2018A.csv	rec	PANIKA	1	2	708
91.66666667	4-2018B.csv	rec	PANIKA	1	2	627
89.13043478	42-2018A.csv	rec	PANIKA	1	2	572
90.73170732	43-2018A.csv	rec	PANIKA	1	2	601
91.08910891	44-2018B.csv	rec	PANIKA	1	2	646
88.95705521	45-2018A.csv	rec	PANIKA	1	2	796
95.59748428	48-2018A.csv	rec	PANIKA	1	2	584
77.98742138	50-2018A.csv	rec	PANIKA	1	2	868
82.0754717	53-2018B.csv	rec	PANIKA	1	2	797
91.11111111	54-2018B.csv	rec	PANIKA	1	2	708
88.88888889	55-2018B.csv	rec	PANIKA	1	2	519
95.26627219	56-2018A.csv	rec	PANIKA	1	2	478
91.58878505	56-2018B.csv	rec	PANIKA	1	2	731
85	59-2018A.csv	rec	PANIKA	1	2	721
94.28571429	61-2018B.csv	rec	PANIKA	1	2	563
94.87179487	6-2018B.csv	rec	PANIKA	1	2	446
92.81045752	63-2018A.csv	rec	PANIKA	1	2	532
95.23809524	65-2018B.csv	rec	PANIKA	1	2	578
93.02325581	67-2018B.csv	rec	PANIKA	1	2	714
92.53731343	68-2018B.csv	rec	PANIKA	1	2	592
92.30769231	7-2018A.csv	rec	PANIKA	1	2	590
97.5	73-2018A.csv	rec	PANIKA	1	2	492
94.94382022	8-2018A.csv	rec	PANIKA	1	2	634
96.2962963	99-2018B.csv	rec	PANIKA	1	2	803
90.56603774	02-2018A.csv	rec	PARA	57	2	604
92.68292683	09-2018B.csv	rec	PARA	57	2	535
87.31707317	10-2018A.csv	rec	PARA	57	2	684
94.61883408	1-2018A.csv	rec	PARA	57	2	611
96.80851064	12-2018B.csv	rec	PARA	57	2	802
87.5	14-2018B.csv	rec	PARA	57	2	593
90.74074074	18-2018B.csv	rec	PARA	57	2	717
85.05747126	19-2018B.csv	rec	PARA	57	2	536
90.05847953	20-2018A.csv	rec	PARA	57	2	956
92.89940828	21-2018A.csv	rec	PARA	57	2	489
89.7260274	26-2018A.csv	rec	PARA	57	2	684
94.02985075	31-2018A.csv	rec	PARA	57	2	579
93.29268293	33-2018A.csv	rec	PARA	57	2	531
94.66666667	34-2018B.csv	rec	PARA	57	2	486
85.41666667	35-2018A.csv	rec	PARA	57	2	601
82.75862069	36-2018B.csv	rec	PARA	57	2	718
94.64285714	37-2018A.csv	rec	PARA	57	2	914
98.65771812	40-2018A.csv	rec	PARA	57	2	655
89.39393939	42-2018A.csv	rec	PARA	57	2	572
90	43-2018A.csv	rec	PARA	57	2	662
91.74311927	44-2018B.csv	rec	PARA	57	2	634
89.23766816	45-2018A.csv	rec	PARA	57	2	757
95.19230769	48-2018A.csv	rec	PARA	57	2	611
77.77777778	50-2018A.csv	rec	PARA	57	2	933
86.53846154	53-2018B.csv	rec	PARA	57	2	754
85.71428571	54-2018B.csv	rec	PARA	57	2	806
92.94117647	55-2018B.csv	rec	PARA	57	2	582
95.07389163	56-2018A.csv	rec	PARA	57	2	524
90.12345679	56-2018B.csv	rec	PARA	57	2	542
95.3271028	61-2018B.csv	rec	PARA	57	2	842
97.14285714	6-2018B.csv	rec	PARA	57	2	494
91.66666667	63-2018A.csv	rec	PARA	57	2	723
95.08196721	65-2018B.csv	rec	PARA	57	2	519
89.74358974	67-2018B.csv	rec	PARA	57	2	543
96.77419355	68-2018B.csv	rec	PARA	57	2	552
92.16589862	7-2018A.csv	rec	PARA	57	2	670
98.78787879	73-2018A.csv	rec	PARA	57	2	570
94.20289855	8-2018A.csv	rec	PARA	57	2	629
96.51162791	99-2018B.csv	rec	PARA	57	2	631
86.8852459	02-2018A.csv	rec	PASUS	20	1	502
92.26519337	09-2018B.csv	rec	PASUS	20	1	607
84.61538462	10-2018A.csv	rec	PASUS	20	1	730
95.04950495	1-2018A.csv	rec	PASUS	20	1	722
92.69662921	14-2018B.csv	rec	PASUS	20	1	620
94.51219512	18-2018B.csv	rec	PASUS	20	1	720
89.62962963	19-2018B.csv	rec	PASUS	20	1	676
88.37209302	20-2018A.csv	rec	PASUS	20	1	478
91.89189189	21-2018A.csv	rec	PASUS	20	1	542
90.72164948	23-2018B.csv	rec	PASUS	20	1	527
90.19607843	31-2018A.csv	rec	PASUS	20	1	677
90.69767442	33-2018A.csv	rec	PASUS	20	1	563
94.52054795	34-2018B.csv	rec	PASUS	20	1	907
84.44444444	35-2018A.csv	rec	PASUS	20	1	739
82.75862069	36-2018B.csv	rec	PASUS	20	1	780
100	37-2018A.csv	rec	PASUS	20	1	772
100	40-2018A.csv	rec	PASUS	20	1	491
90.24390244	4-2018B.csv	rec	PASUS	20	1	807
89.81481481	42-2018A.csv	rec	PASUS	20	1	374
92.34449761	44-2018B.csv	rec	PASUS	20	1	727
92.30769231	45-2018A.csv	rec	PASUS	20	1	667
97.56097561	48-2018A.csv	rec	PASUS	20	1	660
72.30769231	50-2018A.csv	rec	PASUS	20	1	765
85.37735849	53-2018B.csv	rec	PASUS	20	1	747
97.16981132	56-2018A.csv	rec	PASUS	20	1	652
92.71523179	56-2018B.csv	rec	PASUS	20	1	774
90.47619048	59-2018A.csv	rec	PASUS	20	1	708
95.33678756	61-2018B.csv	rec	PASUS	20	1	469
96.20253165	6-2018B.csv	rec	PASUS	20	1	579
94.80519481	63-2018A.csv	rec	PASUS	20	1	904
94.9044586	65-2018B.csv	rec	PASUS	20	1	624
88.78923767	67-2018B.csv	rec	PASUS	20	1	725
92.99065421	68-2018B.csv	rec	PASUS	20	1	654
94.73684211	7-2018A.csv	rec	PASUS	20	1	689
98.14814815	73-2018A.csv	rec	PASUS	20	1	659
100	8-2018A.csv	rec	PASUS	20	1	544
89.41798942	02-2018A.csv	rec	PEGA	45	2	631
92	09-2018B.csv	rec	PEGA	45	2	527
94.79768786	1-2018A.csv	rec	PEGA	45	2	1026
95.77464789	12-2018B.csv	rec	PEGA	45	2	832
91.07142857	14-2018B.csv	rec	PEGA	45	2	976
89.39393939	18-2018B.csv	rec	PEGA	45	2	1154
86.17021277	19-2018B.csv	rec	PEGA	45	2	648
90.25641026	20-2018A.csv	rec	PEGA	45	2	715
92.92929293	21-2018A.csv	rec	PEGA	45	2	539
93.67088608	23-2018B.csv	rec	PEGA	45	2	790
90.45454545	26-2018A.csv	rec	PEGA	45	2	647
93.93939394	31-2018A.csv	rec	PEGA	45	2	596
93.44262295	33-2018A.csv	rec	PEGA	45	2	589
85.56701031	35-2018A.csv	rec	PEGA	45	2	638
96.0591133	40-2018A.csv	rec	PEGA	45	2	562
90.14084507	42-2018A.csv	rec	PEGA	45	2	332
90.79754601	43-2018A.csv	rec	PEGA	45	2	643
88.88888889	45-2018A.csv	rec	PEGA	45	2	618
95.41284404	48-2018A.csv	rec	PEGA	45	2	653
77.37226277	50-2018A.csv	rec	PEGA	45	2	999
81.25	53-2018B.csv	rec	PEGA	45	2	745
91.83673469	54-2018B.csv	rec	PEGA	45	2	656
92.20779221	55-2018B.csv	rec	PEGA	45	2	572
90	56-2018B.csv	rec	PEGA	45	2	774
86.61971831	59-2018A.csv	rec	PEGA	45	2	874
93.93939394	61-2018B.csv	rec	PEGA	45	2	661
95.23809524	6-2018B.csv	rec	PEGA	45	2	675
91.97860963	63-2018A.csv	rec	PEGA	45	2	1048
96	65-2018B.csv	rec	PEGA	45	2	644
94.73684211	67-2018B.csv	rec	PEGA	45	2	1128
92.79279279	68-2018B.csv	rec	PEGA	45	2	730
94.32624113	8-2018A.csv	rec	PEGA	45	2	925
89.70588235	02-2018A.csv	rec	PENUŠANJE	41	2	1216
87.5	10-2018A.csv	rec	PENUŠANJE	41	2	1114
94.55782313	1-2018A.csv	rec	PENUŠANJE	41	2	920
92	12-2018B.csv	rec	PENUŠANJE	41	2	1042
90.54054054	18-2018B.csv	rec	PENUŠANJE	41	2	842
86.53846154	19-2018B.csv	rec	PENUŠANJE	41	2	818
90.99099099	20-2018A.csv	rec	PENUŠANJE	41	2	820
93.66515837	21-2018A.csv	rec	PENUŠANJE	41	2	781
92.30769231	23-2018B.csv	rec	PENUŠANJE	41	2	957
91.20879121	26-2018A.csv	rec	PENUŠANJE	41	2	747
93.92523364	31-2018A.csv	rec	PENUŠANJE	41	2	654
93.02325581	34-2018B.csv	rec	PENUŠANJE	41	2	972
85.31073446	35-2018A.csv	rec	PENUŠANJE	41	2	1129
82.65306122	36-2018B.csv	rec	PENUŠANJE	41	2	650
97.16312057	37-2018A.csv	rec	PENUŠANJE	41	2	864
88.88888889	42-2018A.csv	rec	PENUŠANJE	41	2	821
90.90909091	43-2018A.csv	rec	PENUŠANJE	41	2	1183
92.10526316	44-2018B.csv	rec	PENUŠANJE	41	2	939
89.5	45-2018A.csv	rec	PENUŠANJE	41	2	1296
77.39726027	50-2018A.csv	rec	PENUŠANJE	41	2	1198
83.33333333	53-2018B.csv	rec	PENUŠANJE	41	2	910
90.56603774	54-2018B.csv	rec	PENUŠANJE	41	2	1078
93.68421053	55-2018B.csv	rec	PENUŠANJE	41	2	956
95.18716578	56-2018A.csv	rec	PENUŠANJE	41	2	672
91.81818182	56-2018B.csv	rec	PENUŠANJE	41	2	924
86.12716763	59-2018A.csv	rec	PENUŠANJE	41	2	1096
96.07843137	61-2018B.csv	rec	PENUŠANJE	41	2	1172
96.49122807	6-2018B.csv	rec	PENUŠANJE	41	2	940
93.16770186	63-2018A.csv	rec	PENUŠANJE	41	2	884
96.15384615	65-2018B.csv	rec	PENUŠANJE	41	2	1081
91.93548387	68-2018B.csv	rec	PENUŠANJE	41	2	1081
93.15068493	7-2018A.csv	rec	PENUŠANJE	41	2	1140
97.72727273	73-2018A.csv	rec	PENUŠANJE	41	2	621
95.26066351	8-2018A.csv	rec	PENUŠANJE	41	2	909
96.22641509	99-2018B.csv	rec	PENUŠANJE	41	2	971
89.58333333	02-2018A.csv	rec	PERON	47	2	683
93.47826087	09-2018B.csv	rec	PERON	47	2	853
85.61151079	10-2018A.csv	rec	PERON	47	2	522
94.52054795	1-2018A.csv	rec	PERON	47	2	738
95.3125	12-2018B.csv	rec	PERON	47	2	669
88.88888889	14-2018B.csv	rec	PERON	47	2	619
91.46341463	18-2018B.csv	rec	PERON	47	2	738
75.6097561	19-2018B.csv	rec	PERON	47	2	576
90.52132701	20-2018A.csv	rec	PERON	47	2	547
94.80519481	21-2018A.csv	rec	PERON	47	2	1068
94.38202247	23-2018B.csv	rec	PERON	47	2	684
91.06145251	26-2018A.csv	rec	PERON	47	2	684
93.95348837	31-2018A.csv	rec	PERON	47	2	482
92.81045752	33-2018A.csv	rec	PERON	47	2	596
94.73684211	34-2018B.csv	rec	PERON	47	2	574
85.22727273	35-2018A.csv	rec	PERON	47	2	669
82.29166667	36-2018B.csv	rec	PERON	47	2	620
95.88235294	37-2018A.csv	rec	PERON	47	2	699
98.56115108	40-2018A.csv	rec	PERON	47	2	681
88.99082569	42-2018A.csv	rec	PERON	47	2	556
90.625	43-2018A.csv	rec	PERON	47	2	704
88.70967742	45-2018A.csv	rec	PERON	47	2	567
94.94949495	48-2018A.csv	rec	PERON	47	2	608
81.81818182	53-2018B.csv	rec	PERON	47	2	552
96.35036496	56-2018A.csv	rec	PERON	47	2	574
91.34615385	56-2018B.csv	rec	PERON	47	2	509
84.13461538	59-2018A.csv	rec	PERON	47	2	829
95.83333333	61-2018B.csv	rec	PERON	47	2	898
96.15384615	6-2018B.csv	rec	PERON	47	2	486
93.43065693	63-2018A.csv	rec	PERON	47	2	951
94.52054795	65-2018B.csv	rec	PERON	47	2	696
93.68421053	68-2018B.csv	rec	PERON	47	2	557
93.52517986	7-2018A.csv	rec	PERON	47	2	699
97.71689498	73-2018A.csv	rec	PERON	47	2	600
95.28301887	8-2018A.csv	rec	PERON	47	2	750
95.12195122	99-2018B.csv	rec	PERON	47	2	990
90.36144578	02-2018A.csv	rec	PLATA	79	2	553
92.59259259	09-2018B.csv	rec	PLATA	79	2	637
87.61904762	10-2018A.csv	rec	PLATA	79	2	644
95.62043796	1-2018A.csv	rec	PLATA	79	2	545
95.65217391	12-2018B.csv	rec	PLATA	79	2	1024
85.10638298	14-2018B.csv	rec	PLATA	79	2	596
89.85507246	18-2018B.csv	rec	PLATA	79	2	544
77.35849057	19-2018B.csv	rec	PLATA	79	2	419
90.2173913	20-2018A.csv	rec	PLATA	79	2	713
94.66666667	21-2018A.csv	rec	PLATA	79	2	522
93.5483871	23-2018B.csv	rec	PLATA	79	2	484
90.0621118	26-2018A.csv	rec	PLATA	79	2	805
94.63087248	31-2018A.csv	rec	PLATA	79	2	446
92.85714286	33-2018A.csv	rec	PLATA	79	2	987
95.87628866	34-2018B.csv	rec	PLATA	79	2	509
85.09615385	35-2018A.csv	rec	PLATA	79	2	696
80	36-2018B.csv	rec	PLATA	79	2	589
96.79487179	37-2018A.csv	rec	PLATA	79	2	632
98.58156028	40-2018A.csv	rec	PLATA	79	2	651
89.18918919	4-2018B.csv	rec	PLATA	79	2	621
89.6373057	42-2018A.csv	rec	PLATA	79	2	620
89.9408284	43-2018A.csv	rec	PLATA	79	2	1033
94.11764706	44-2018B.csv	rec	PLATA	79	2	568
95.93023256	48-2018A.csv	rec	PLATA	79	2	656
77.83505155	50-2018A.csv	rec	PLATA	79	2	973
81.08108108	53-2018B.csv	rec	PLATA	79	2	613
92.30769231	54-2018B.csv	rec	PLATA	79	2	734
90.38461538	55-2018B.csv	rec	PLATA	79	2	534
95.21276596	56-2018A.csv	rec	PLATA	79	2	515
88.70967742	56-2018B.csv	rec	PLATA	79	2	763
86.47058824	59-2018A.csv	rec	PLATA	79	2	599
94.73684211	61-2018B.csv	rec	PLATA	79	2	490
96.22641509	6-2018B.csv	rec	PLATA	79	2	503
93.20987654	63-2018A.csv	rec	PLATA	79	2	789
96.07843137	65-2018B.csv	rec	PLATA	79	2	476
90	67-2018B.csv	rec	PLATA	79	2	526
92.85714286	68-2018B.csv	rec	PLATA	79	2	626
92.64705882	7-2018A.csv	rec	PLATA	79	2	552
99.29577465	73-2018A.csv	rec	PLATA	79	2	412
94.16058394	8-2018A.csv	rec	PLATA	79	2	859
96.20253165	99-2018B.csv	rec	PLATA	79	2	667
91.42857143	09-2018B.csv	rec	PLI?AK	69	2	693
87.24489796	10-2018A.csv	rec	PLI?AK	69	2	732
94.39252336	1-2018A.csv	rec	PLI?AK	69	2	765
97.16981132	12-2018B.csv	rec	PLI?AK	69	2	688
91.01123596	14-2018B.csv	rec	PLI?AK	69	2	693
91.83673469	18-2018B.csv	rec	PLI?AK	69	2	623
87.27272727	19-2018B.csv	rec	PLI?AK	69	2	731
90.47619048	20-2018A.csv	rec	PLI?AK	69	2	452
94.92753623	21-2018A.csv	rec	PLI?AK	69	2	1039
92.95774648	23-2018B.csv	rec	PLI?AK	69	2	797
90.38461538	26-2018A.csv	rec	PLI?AK	69	2	791
94.79166667	31-2018A.csv	rec	PLI?AK	69	2	601
93.03797468	33-2018A.csv	rec	PLI?AK	69	2	698
85.78947368	35-2018A.csv	rec	PLI?AK	69	2	830
76.19047619	36-2018B.csv	rec	PLI?AK	69	2	1016
96.83544304	37-2018A.csv	rec	PLI?AK	69	2	969
98.51851852	40-2018A.csv	rec	PLI?AK	69	2	715
88.88888889	4-2018B.csv	rec	PLI?AK	69	2	859
90.65420561	43-2018A.csv	rec	PLI?AK	69	2	754
92.5	44-2018B.csv	rec	PLI?AK	69	2	670
89.43661972	45-2018A.csv	rec	PLI?AK	69	2	717
95.89041096	48-2018A.csv	rec	PLI?AK	69	2	665
84.14634146	53-2018B.csv	rec	PLI?AK	69	2	878
91.66666667	54-2018B.csv	rec	PLI?AK	69	2	872
89.58333333	55-2018B.csv	rec	PLI?AK	69	2	1037
95.16129032	56-2018A.csv	rec	PLI?AK	69	2	610
92.30769231	56-2018B.csv	rec	PLI?AK	69	2	784
95.45454545	61-2018B.csv	rec	PLI?AK	69	2	701
95.55555556	6-2018B.csv	rec	PLI?AK	69	2	670
95.55555556	65-2018B.csv	rec	PLI?AK	69	2	746
92.85714286	67-2018B.csv	rec	PLI?AK	69	2	654
92.85714286	68-2018B.csv	rec	PLI?AK	69	2	634
92.26804124	7-2018A.csv	rec	PLI?AK	69	2	1117
99.27536232	73-2018A.csv	rec	PLI?AK	69	2	565
